DateTime,Scaled_Acc_X_(mg),Scaled_Acc_Y_(mg),Scaled_Acc_Z_(mg),Gyr_X_(DPS),Gyr_Y_(DPS),Gyr_Z_(DPS),Mag_X_(uT),Mag_Y_(uT),Mag_Z_(uT),Tmp_(C)
1970-1-1 0:0:2.359,-00012.21,-00027.83, 01002.93, 00000.62,-00000.80,-00001.08,-00009.00, 00004.50, 00016.50, 00031.48
1970-1-1 0:0:2.426,-00002.93,-00041.99, 01000.00,-00002.92, 00001.30,-00001.63,-00009.60, 00003.60, 00015.90, 00031.48
1970-1-1 0:0:2.493,-00011.72,-00027.34, 00994.14,-00002.18,-00000.28,-00000.58,-00008.10, 00003.90, 00016.80, 00031.67
1970-1-1 0:0:2.560,-00024.41,-00023.93, 00992.68,-00000.87,-00004.04,-00000.78,-00009.90, 00003.00, 00014.70, 00031.58
1970-1-1 0:0:2.627,-00007.32,-00027.83, 01003.42,-00000.27,-00001.53, 00001.60,-00008.85, 00003.60, 00014.40, 00031.72
1970-1-1 0:0:2.694,-00002.44,-00035.16, 01005.86,-00001.75, 00000.85, 00000.47,-00009.60, 00004.80, 00016.35, 00031.53
1970-1-1 0:0:2.761,-00013.18,-00020.02, 01009.28,-00001.76,-00002.66, 00002.67,-00008.85, 00002.70, 00015.90, 00031.72
1970-1-1 0:0:2.828,-00021.48,-00031.74, 01000.98,-00000.89, 00001.88, 00001.88,-00010.80, 00003.60, 00017.10, 00031.86
1970-1-1 0:0:2.873,-00008.79,-00037.11, 01007.81,-00000.36, 00001.34, 00003.81,-00010.65, 00005.40, 00016.50, 00031.67
1970-1-1 0:0:2.918,-00014.16,-00011.72, 00993.65,-00001.15, 00001.12,-00000.97,-00009.90, 00005.70, 00015.75, 00031.34
1970-1-1 0:0:2.963,-00018.07,-00025.88, 01011.72,-00002.51, 00001.44, 00001.08,-00010.50, 00003.60, 00015.90, 00031.48
1970-1-1 0:0:3.08,-00017.09,-00035.16, 01008.30,-00000.87,-00003.69, 00000.82,-00009.45, 00004.20, 00016.95, 00031.58
1970-1-1 0:0:3.053,-00014.16,-00017.58, 00992.19,-00002.62, 00002.44,-00002.27,-00011.40, 00003.00, 00015.75, 00031.77
1970-1-1 0:0:3.098,-00024.90,-00033.69, 00993.16,-00000.73,-00000.44,-00000.68,-00010.20, 00002.55, 00017.70, 00031.38
1970-1-1 0:0:3.143,-00021.97,-00030.76, 00994.63, 00001.28,-00002.71, 00002.66,-00010.05, 00002.70, 00016.35, 00031.77
1970-1-1 0:0:3.188,-00006.84,-00015.62, 00999.51,-00000.89,-00001.24, 00001.77,-00010.65, 00004.20, 00016.50, 00031.91
1970-1-1 0:0:3.233,-00005.86,-00022.95, 01005.37,-00002.64, 00003.78,-00003.08,-00010.05, 00003.90, 00015.15, 00031.34
1970-1-1 0:0:3.278, 00003.42,-00019.53, 01000.98, 00000.26, 00000.77, 00001.53,-00009.00, 00004.95, 00016.50, 00031.77
1970-1-1 0:0:3.323,-00013.67,-00012.21, 01004.39,-00000.58,-00002.87, 00000.18,-00009.45, 00004.50, 00015.75, 00031.53
1970-1-1 0:0:3.368,-00019.53,-00028.81, 01011.72, 00001.79,-00004.44, 00002.45,-00009.90, 00004.20, 00016.95, 00031.67
1970-1-1 0:0:3.413,-00000.98,-00038.57, 01005.86,-00002.32, 00001.13,-00001.33,-00010.50, 00004.80, 00016.80, 00031.67
1970-1-1 0:0:3.458,-00021.00,-00024.41, 01000.49, 00000.89,-00000.26, 00002.19,-00010.05, 00003.90, 00015.15, 00031.72
1970-1-1 0:0:3.503,-00013.18,-00032.71, 00995.12, 00000.22, 00000.33, 00000.08,-00009.60, 00003.15, 00016.35, 00031.72
1970-1-1 0:0:3.548,-00009.77,-00035.64, 01011.72,-00000.46, 00003.05, 00002.02,-00009.45, 00004.20, 00018.45, 00031.48
1970-1-1 0:0:3.593,-00009.28,-00020.02, 00999.51,-00000.73, 00000.50,-00002.67,-00009.60, 00003.15, 00015.15, 00031.72
1970-1-1 0:0:3.638,-00008.30,-00018.07, 01013.18, 00002.79, 00001.98,-00000.24,-00010.95, 00002.10, 00015.75, 00031.67
1970-1-1 0:0:3.683,-00012.21,-00047.85, 00999.51,-00001.54,-00001.76, 00001.79,-00010.20, 00003.75, 00015.45, 00031.77
1970-1-1 0:0:3.728,-00005.37,-00021.97, 01013.67,-00004.81, 00000.63,-00000.24,-00010.50, 00003.15, 00014.40, 00031.48
1970-1-1 0:0:3.773,-00006.84,-00037.60, 01009.28,-00001.39, 00000.47, 00000.86,-00010.20, 00004.50, 00015.45, 00031.91
1970-1-1 0:0:3.818,-00016.60,-00039.06, 01008.79, 00000.24,-00000.24,-00000.63,-00008.85, 00004.35, 00015.60, 00031.58
1970-1-1 0:0:3.885,-00006.84,-00027.34, 01026.37,-00002.95,-00001.85,-00001.18,-00010.50, 00003.15, 00015.90, 00031.67
1970-1-1 0:0:3.952,-00021.48,-00033.20, 00994.14,-00002.72, 00000.88,-00001.51,-00009.45, 00003.00, 00015.45, 00031.91
1970-1-1 0:0:4.019,-00005.86,-00065.43, 01006.84, 00001.75,-00001.61, 00001.15,-00010.80, 00003.60, 00016.80, 00031.72
1970-1-1 0:0:4.086,-00010.25,-00036.62, 01000.00, 00001.78,-00001.44, 00001.99,-00009.60, 00003.90, 00016.35, 00031.67
1970-1-1 0:0:4.153,-00004.39,-00025.39, 01018.55,-00003.57, 00001.34, 00000.56,-00009.60, 00003.15, 00015.15, 00031.72
1970-1-1 0:0:4.220, 00000.49,-00027.83, 01004.88,-00001.29,-00001.66, 00000.09,-00009.00, 00004.50, 00016.95, 00031.77
1970-1-1 0:0:4.287,-00028.81,-00107.91, 01083.01,-00000.69,-00001.09, 00021.30,-00009.90, 00004.95, 00015.75, 00031.91
1970-1-1 0:0:4.332,-00018.07,-00011.72, 01000.49, 00000.33,-00000.97, 00001.09,-00009.90, 00004.95, 00016.20, 00031.72
1970-1-1 0:0:4.377, 00026.86, 00008.30, 01083.98,-00009.87,-00001.56, 00010.06,-00009.00, 00002.55, 00015.45, 00031.48
1970-1-1 0:0:4.422, 00020.51, 00001.46, 00947.75,-00018.50,-00008.37, 00019.34,-00008.10, 00003.90, 00016.35, 00031.72
1970-1-1 0:0:4.467,-00022.46,-00175.29, 01002.44,-00022.31,-00008.24, 00022.76,-00010.80, 00001.95, 00016.35, 00031.91
1970-1-1 0:0:4.512, 00083.01,-00072.27, 00893.55,-00029.14, 00001.18, 00007.81,-00008.85, 00002.70, 00015.15, 00031.67
1970-1-1 0:0:4.557,-00107.91,-00052.73, 01083.98, 00002.64,-00004.50, 00004.56,-00009.45, 00000.90, 00013.80, 00031.67
1970-1-1 0:0:4.602, 00015.62,-00147.95, 01130.86,-00032.23,-00004.85, 00004.18,-00008.10, 00000.30, 00014.85, 00031.72
1970-1-1 0:0:4.647, 00059.08,-00237.30, 00913.57,-00053.18,-00005.15, 00002.04,-00009.60,-00001.20, 00014.40, 00031.72
1970-1-1 0:0:4.692, 00113.28, 00141.60, 01163.57,-00035.73,-00007.82, 00014.76,-00009.30,-00003.90, 00013.65, 00031.38
1970-1-1 0:0:4.737, 00015.62,-00208.01, 01110.84,-00017.68,-00037.13, 00000.33,-00010.20,-00003.30, 00013.05, 00031.72
1970-1-1 0:0:4.782, 00116.70,-00116.70, 01162.60, 00032.63,-00053.48, 00006.79,-00010.65,-00004.20, 00012.00, 00031.72
1970-1-1 0:0:4.827, 00043.95,-00130.86, 01012.21, 00024.85,-00025.17, 00009.87,-00012.90,-00003.30, 00010.50, 00031.91
1970-1-1 0:0:4.872, 00124.02,-00123.54, 00976.07, 00011.26, 00021.72, 00014.46,-00012.60,-00003.75, 00011.25, 00031.77
1970-1-1 0:0:4.917, 00085.45,-00050.29, 01018.07,-00007.68, 00032.18, 00013.29,-00010.50,-00003.15, 00012.60, 00031.72
1970-1-1 0:0:4.962, 00072.27,-00136.72, 01080.57,-00002.55, 00017.55, 00011.53,-00008.70,-00004.95, 00010.80, 00031.91
1970-1-1 0:0:5.07, 00007.32,-00162.11, 01067.38, 00005.69, 00005.31, 00007.84,-00008.25,-00004.50, 00010.50, 00031.53
1970-1-1 0:0:5.052, 00014.65,-00144.04, 01031.25, 00005.32, 00001.80, 00002.55,-00008.85,-00004.35, 00010.65, 00031.86
1970-1-1 0:0:5.097, 00004.39,-00188.48, 00993.16, 00006.83, 00015.91, 00008.34,-00007.50,-00005.40, 00011.55, 00031.72
1970-1-1 0:0:5.142,-00023.93,-00159.18, 01001.95, 00007.28, 00025.93, 00007.22,-00007.05,-00004.95, 00008.55, 00031.86
1970-1-1 0:0:5.187,-00018.55,-00246.09, 00932.13,-00012.27, 00041.20, 00004.13,-00004.95,-00003.60, 00011.40, 00031.77
1970-1-1 0:0:5.232,-00024.41,-00164.55, 00910.16,-00024.19, 00036.39, 00002.34,-00003.75,-00004.80, 00009.45, 00032.10
1970-1-1 0:0:5.277,-00056.64,-00184.57, 00857.91,-00031.84, 00022.47, 00004.33,-00002.70,-00005.55, 00009.45, 00031.72
1970-1-1 0:0:5.322,-00070.80,-00128.42, 00794.92,-00016.89, 00012.43, 00001.95,-00003.00,-00007.95, 00008.70, 00031.77
1970-1-1 0:0:5.389,-00093.26,-00181.15, 00741.70,-00033.40,-00000.15, 00002.02,-00001.65,-00008.55, 00008.55, 00031.77
1970-1-1 0:0:5.456,-00174.80,-00159.67, 00824.71, 00002.27,-00011.11, 00000.60,-00002.25,-00009.60, 00007.20, 00031.58
1970-1-1 0:0:5.523,-00072.75,-00199.22, 00801.27, 00003.77,-00029.36,-00005.76,-00004.80,-00009.45, 00008.10, 00031.86
1970-1-1 0:0:5.590,-00077.64,-00139.65, 00780.27, 00007.29,-00037.00,-00005.50,-00004.65,-00008.40, 00007.50, 00031.86
1970-1-1 0:0:5.657, 00047.36,-00110.84, 00836.43, 00011.07,-00043.82,-00008.11,-00007.50,-00009.00, 00008.85, 00031.72
1970-1-1 0:0:5.724, 00121.09,-00158.69, 00780.27, 00031.17,-00075.13,-00014.45,-00010.20,-00008.25, 00009.60, 00031.67
1970-1-1 0:0:5.791, 01526.86, 00274.41, 01999.94, 00250.13, 00250.13, 00027.77,-00016.80,-00007.05, 00008.85, 00031.72
1970-1-1 0:0:5.836, 00386.23,-00072.75, 01999.94, 00033.98,-00043.80,-00010.76,-00010.05, 00002.40, 00017.10, 00031.53
1970-1-1 0:0:5.881,-00036.62,-00237.30, 00441.89, 00100.12, 00002.53, 00021.17,-00010.05,-00001.95, 00015.15, 00031.72
1970-1-1 0:0:5.926,-00064.45,-00326.66, 00419.92,-00024.50,-00012.50, 00001.05,-00008.25, 00000.15, 00015.75, 00032.06
1970-1-1 0:0:5.971, 00011.23,-00048.83, 01018.55,-00005.80,-00005.34, 00001.04,-00007.50, 00001.35, 00017.70, 00031.86
1970-1-1 0:0:6.016, 00011.23,-00011.72, 01018.07, 00001.37,-00000.60,-00000.76,-00009.30, 00000.75, 00015.15, 00031.77
1970-1-1 0:0:6.061, 00020.02,-00030.27, 00984.86,-00000.51,-00000.62, 00002.53,-00008.70, 00001.35, 00015.45, 00031.77
1970-1-1 0:0:6.106, 00011.23,-00032.71, 01000.98, 00002.98,-00001.54, 00001.92,-00008.70, 00000.15, 00016.50, 00031.72
1970-1-1 0:0:6.151, 00005.37,-00043.46, 01013.18, 00000.31, 00000.82,-00001.56,-00008.55, 00000.30, 00015.15, 00031.48
1970-1-1 0:0:6.196,-00033.20,-00046.88, 01016.11,-00002.80, 00001.40, 00000.54,-00008.25,-00000.15, 00014.70, 00031.86
1970-1-1 0:0:6.241, 00010.74,-00062.99, 01058.59,-00006.11,-00003.10, 00000.31,-00009.60,-00000.30, 00015.90, 00031.67
1970-1-1 0:0:6.286, 00029.79,-00122.07, 00983.89,-00052.66,-00003.63,-00000.53,-00008.85,-00001.20, 00015.15, 00031.77
1970-1-1 0:0:6.331, 00062.99,-00129.39, 01019.04,-00040.95, 00000.89, 00004.73,-00009.45,-00003.30, 00015.75, 00032.01
1970-1-1 0:0:6.376, 00016.11,-00162.60, 01232.91,-00003.07,-00018.48, 00009.62,-00009.90,-00004.95, 00013.50, 00031.91
1970-1-1 0:0:6.421, 00013.18,-00149.41, 01215.82, 00009.60,-00033.37, 00006.34,-00009.60,-00003.90, 00014.10, 00031.91
1970-1-1 0:0:6.466, 00069.34,-00126.95, 01029.79, 00006.75,-00002.45, 00013.04,-00009.60,-00005.10, 00011.70, 00031.53
1970-1-1 0:0:6.511, 00004.88,-00156.25, 01025.88,-00007.83, 00039.56, 00017.10,-00010.20,-00003.75, 00012.00, 00031.91
1970-1-1 0:0:6.556,-00005.86,-00159.67, 01081.54,-00013.75, 00045.05, 00017.02,-00006.00,-00003.75, 00013.50, 00031.91
1970-1-1 0:0:6.601,-00017.58,-00139.16, 01045.90,-00011.07, 00024.80, 00011.80,-00004.65,-00005.55, 00012.90, 00031.77
1970-1-1 0:0:6.646,-00137.70,-00195.80, 01058.11,-00020.73, 00007.22, 00007.34,-00002.10,-00006.60, 00010.50, 00031.91
1970-1-1 0:0:6.691,-00062.50,-00102.54, 00997.56,-00023.90,-00000.30, 00000.43,-00004.20,-00007.20, 00011.40, 00032.01
1970-1-1 0:0:6.736,-00062.99,-00213.87, 00951.17,-00022.60,-00002.60,-00000.95,-00002.70,-00006.75, 00009.90, 00031.91
1970-1-1 0:0:6.781,-00050.29,-00224.12, 00850.10,-00022.73, 00012.04,-00005.27,-00000.45,-00007.35, 00009.60, 00031.67
1970-1-1 0:0:6.848,-00076.17,-00233.40, 00868.65,-00005.02, 00026.52, 00013.37,-00000.90,-00010.20, 00007.05, 00031.86
1970-1-1 0:0:6.915,-00094.24,-00160.64, 00923.34,-00004.94, 00019.83, 00011.16,-00000.15,-00010.20, 00008.85, 00031.72
1970-1-1 0:0:6.982,-00122.07,-00181.15, 00833.01, 00011.99, 00007.88, 00005.67, 00001.50,-00011.25, 00008.40, 00031.77
1970-1-1 0:0:7.049,-00104.98,-00148.44, 00822.27, 00018.53,-00000.86, 00006.31, 00002.25,-00009.15, 00007.95, 00031.77
1970-1-1 0:0:7.116,-00130.37,-00146.48, 00820.80, 00014.51,-00017.51, 00005.89, 00001.65,-00009.00, 00010.05, 00032.01
1970-1-1 0:0:7.183,-00093.75,-00107.91, 00788.57, 00009.03,-00019.39,-00002.93, 00000.15,-00008.55, 00009.60, 00031.72
1970-1-1 0:0:7.250,-00070.31,-00121.09, 00809.57, 00004.82,-00020.90,-00007.49, 00000.75,-00006.45, 00010.95, 00031.77
1970-1-1 0:0:7.295,-00059.08,-00028.81, 00896.97,-00001.89,-00022.33,-00008.53,-00000.75,-00007.20, 00012.15, 00031.58
1970-1-1 0:0:7.340,-00050.78,-00170.90, 00861.82, 00013.69,-00043.23,-00015.68,-00001.05,-00006.00, 00012.15, 00031.48
1970-1-1 0:0:7.385, 00016.11,-00192.87, 00868.65, 00017.37,-00050.29,-00014.84,-00004.35,-00007.05, 00011.25, 00031.77
1970-1-1 0:0:7.430, 00115.72,-00065.92, 00942.38, 00012.63,-00057.42,-00011.03,-00008.25,-00005.70, 00011.55, 00031.77
1970-1-1 0:0:7.475, 00119.63, 00396.48, 01280.27, 00164.95, 00238.89, 00012.69,-00010.20,-00000.90, 00015.00, 00031.86
1970-1-1 0:0:7.520,-00039.06, 00133.30, 00173.83, 00005.18, 00053.09,-00034.00,-00008.25,-00003.75, 00013.80, 00031.77
1970-1-1 0:0:7.565, 00263.18,-00352.05, 01014.65,-00011.06, 00007.57, 00008.39,-00009.00,-00001.80, 00015.45, 00031.72
1970-1-1 0:0:7.610, 00006.35,-00087.89, 01045.41,-00003.96,-00002.30,-00000.29,-00007.35,-00001.50, 00015.90, 00031.72
1970-1-1 0:0:7.655, 00006.84,-00089.84, 01027.83,-00000.43,-00002.34, 00002.89,-00007.05,-00001.80, 00014.70, 00032.01
1970-1-1 0:0:7.700, 00005.86,-00097.66, 01014.65, 00003.39,-00004.24, 00002.34,-00006.00,-00000.90, 00016.20, 00031.86
1970-1-1 0:0:7.745, 00027.83,-00063.96, 01020.51,-00001.81, 00003.21, 00000.27,-00008.85, 00000.75, 00015.90, 00031.86
1970-1-1 0:0:7.790, 00014.16,-00080.57, 01001.46,-00003.20,-00000.52,-00000.35,-00008.10,-00001.50, 00014.40, 00031.91
1970-1-1 0:0:7.835, 00009.28,-00079.10, 01009.28, 00002.22,-00002.32, 00000.86,-00009.00,-00001.35, 00015.00, 00032.01
1970-1-1 0:0:7.880, 00008.79,-00079.59, 01013.67, 00000.79,-00001.90, 00001.40,-00007.95,-00002.10, 00016.20, 00031.77
1970-1-1 0:0:7.925, 00010.74,-00064.94, 01033.20,-00003.85, 00001.02,-00001.85,-00009.00,-00001.35, 00015.45, 00031.72
1970-1-1 0:0:7.970, 00000.00,-00073.73, 01012.70,-00003.71, 00003.29,-00001.92,-00009.00,-00000.90, 00014.25, 00031.72
1970-1-1 0:0:8.015, 00011.72,-00086.43, 00993.16,-00008.50,-00001.11, 00002.40,-00006.60,-00001.20, 00014.10, 00031.91
1970-1-1 0:0:8.060,-00007.32,-00191.89, 00836.91,-00040.86, 00001.37, 00006.69,-00009.30,-00002.40, 00015.15, 00032.01
1970-1-1 0:0:8.105,-00020.02,-00190.92, 01101.56,-00035.97,-00005.66, 00002.80,-00007.65,-00003.90, 00013.65, 00031.91
1970-1-1 0:0:8.150, 00072.75,-00222.66, 01258.79, 00003.24,-00042.08,-00001.55,-00009.00,-00004.50, 00013.50, 00031.91
1970-1-1 0:0:8.195, 00012.21,-00153.32, 01058.59, 00012.07,-00038.14,-00002.61,-00010.50,-00005.55, 00011.70, 00031.67
1970-1-1 0:0:8.240, 00093.26,-00131.35, 00939.45, 00008.24, 00009.60, 00004.05,-00010.95,-00003.75, 00013.05, 00031.58
1970-1-1 0:0:8.285, 00043.95,-00131.84, 01054.69, 00003.81, 00048.60, 00004.47,-00008.25,-00004.50, 00012.30, 00031.91
1970-1-1 0:0:8.352, 00016.60,-00130.86, 01100.10, 00003.79, 00032.81, 00006.30,-00008.10,-00003.90, 00012.90, 00031.72
1970-1-1 0:0:8.419,-00006.35,-00148.93, 01020.02, 00008.21,-00001.52, 00001.48,-00004.80,-00004.50, 00013.50, 00031.91
1970-1-1 0:0:8.486, 00008.79,-00063.96, 00982.42,-00010.39,-00000.05, 00001.76,-00004.95,-00005.10, 00012.15, 00031.67
1970-1-1 0:0:8.553,-00056.15,-00132.32, 00936.52,-00011.73, 00014.53, 00009.21,-00002.70,-00006.45, 00011.40, 00031.86
1970-1-1 0:0:8.620,-00027.83,-00124.51, 00902.83,-00018.70, 00016.82, 00004.00,-00002.40,-00007.05, 00011.55, 00031.67
1970-1-1 0:0:8.687,-00063.96,-00145.02, 00884.28,-00013.44, 00009.37, 00005.12,-00001.50,-00007.20, 00010.20, 00031.91
1970-1-1 0:0:8.754,-00040.04,-00088.38, 00831.54,-00010.69, 00012.44, 00003.37,-00000.15,-00007.80, 00008.85, 00031.86
1970-1-1 0:0:8.799,-00116.21,-00098.63, 00896.97, 00004.34, 00000.77, 00005.89,-00000.75,-00008.40, 00009.15, 00031.53
1970-1-1 0:0:8.844,-00096.19,-00101.07, 00903.32,-00005.88,-00011.01, 00002.06, 00000.45,-00008.25, 00010.80, 00031.86
1970-1-1 0:0:8.889,-00119.63,-00151.86, 00917.48,-00012.24,-00015.78,-00005.21, 00000.90,-00010.65, 00010.80, 00031.72
1970-1-1 0:0:8.934,-00092.29,-00157.71, 00860.35,-00005.70,-00013.78,-00011.31,-00002.25,-00008.85, 00008.70, 00031.67
1970-1-1 0:0:8.979,-00032.23,-00152.34, 00778.32, 00009.84,-00010.07,-00008.96,-00001.05,-00008.40, 00010.20, 00031.91
1970-1-1 0:0:9.024,-00024.41,-00117.19, 00823.73, 00001.07,-00006.53,-00006.62,-00001.80,-00007.95, 00009.90, 00031.91
1970-1-1 0:0:9.069,-00022.46,-00157.71, 00857.91,-00001.98,-00012.68,-00008.87,-00003.30,-00008.55, 00012.00, 00031.67
1970-1-1 0:0:9.114,-00021.48,-00154.79, 00795.90, 00009.53,-00017.73,-00006.33,-00004.80,-00008.25, 00010.05, 00031.86
1970-1-1 0:0:9.159,-00018.55,-00170.90, 00795.41, 00015.20,-00035.95,-00007.48,-00004.35,-00006.60, 00012.00, 00031.91
1970-1-1 0:0:9.204, 00045.41,-00077.15, 00810.06, 00009.82,-00074.73,-00007.27,-00008.10,-00006.75, 00013.35, 00031.86
1970-1-1 0:0:9.249,-00172.36, 00388.18, 01991.70, 00250.13, 00180.93, 00037.93,-00010.20,-00006.60, 00013.05, 00032.01
1970-1-1 0:0:9.294, 00125.98,-00291.50, 00439.45,-00038.44,-00054.63, 00009.94,-00008.10,-00002.40, 00016.35, 00032.01
1970-1-1 0:0:9.339,-00196.78, 00093.75, 01317.38, 00067.63,-00029.19, 00018.84,-00009.30,-00002.40, 00014.85, 00031.86
1970-1-1 0:0:9.384, 00036.13,-00026.86, 00972.66,-00012.32,-00001.02,-00000.69,-00007.65,-00001.50, 00016.35, 00031.72
1970-1-1 0:0:9.429, 00022.46,-00026.37, 01001.95, 00010.86, 00001.28,-00000.15,-00008.10,-00002.70, 00016.35, 00031.72
1970-1-1 0:0:9.474, 00020.02,-00063.48, 01015.62,-00001.34,-00000.08,-00000.60,-00008.25,-00001.80, 00015.75, 00031.91
1970-1-1 0:0:9.519, 00010.74,-00044.43, 00984.38,-00000.93,-00001.31, 00000.76,-00009.00,-00000.60, 00016.50, 00031.58
1970-1-1 0:0:9.564,-00006.84,-00072.75, 01011.23,-00001.90, 00001.81,-00000.36,-00008.55,-00001.95, 00015.15, 00031.86
1970-1-1 0:0:9.609, 00016.11,-00047.85, 00995.12,-00002.03,-00000.86, 00004.15,-00008.85,-00001.95, 00015.15, 00031.86
1970-1-1 0:0:9.654, 00018.55,-00058.11, 01009.28,-00000.24,-00002.80, 00002.60,-00007.35,-00001.50, 00016.95, 00031.72
1970-1-1 0:0:9.699, 00014.65,-00068.85, 01007.81,-00003.67,-00001.73, 00000.92,-00008.25,-00002.10, 00015.75, 00031.72
1970-1-1 0:0:9.744,-00003.42,-00061.52, 01000.98,-00004.60, 00002.33,-00000.78,-00007.50,-00000.15, 00016.50, 00031.91
1970-1-1 0:0:9.811, 00005.37,-00047.85, 01005.37,-00013.37, 00003.17,-00000.37,-00006.75,-00002.10, 00015.45, 00032.01
1970-1-1 0:0:9.878, 00019.04,-00092.29, 01021.48,-00006.42, 00003.38, 00006.18,-00006.90,-00002.40, 00014.85, 00032.20
1970-1-1 0:0:9.945,-00025.88,-00109.86, 00969.73,-00005.44, 00013.25,-00001.47,-00007.95,-00003.30, 00014.70, 00031.91
1970-1-1 0:0:10.012,-00069.82,-00010.25, 01070.80, 00051.81, 00035.63, 00005.98,-00006.30,-00002.10, 00016.20, 00031.91
1970-1-1 0:0:10.079,-00092.29,-00001.46, 01182.62, 00079.26, 00036.56, 00010.99,-00003.60, 00001.80, 00016.95, 00032.01
1970-1-1 0:0:10.146,-00103.52, 00125.49, 01016.11, 00095.15, 00015.48, 00004.85,-00000.90, 00007.35, 00018.90, 00032.01
1970-1-1 0:0:10.213,-00104.98, 00137.21, 00836.91, 00064.31, 00010.32,-00000.14, 00002.10, 00012.60, 00019.95, 00031.72
1970-1-1 0:0:10.258,-00128.91, 00167.97, 00945.31, 00047.05,-00001.33,-00011.11, 00001.65, 00015.90, 00018.45, 00031.91
1970-1-1 0:0:10.303,-00148.93, 00209.47, 00893.55, 00033.30,-00009.25,-00022.85, 00003.00, 00016.50, 00019.35, 00032.01
1970-1-1 0:0:10.348,-00152.34, 00287.11, 00890.14, 00017.00, 00003.92,-00027.25, 00001.80, 00016.50, 00019.05, 00032.06
1970-1-1 0:0:10.393,-00149.41, 00321.29, 00915.53,-00000.29, 00007.12,-00023.12, 00001.50, 00017.70, 00020.10, 00031.72
1970-1-1 0:0:10.438,-00176.27, 00594.24, 00884.77,-00000.68,-00006.79,-00002.53, 00003.00, 00018.45, 00019.05, 00031.77
1970-1-1 0:0:10.483,-00166.02, 00282.23, 00916.50,-00015.67,-00011.95, 00001.98, 00001.35, 00018.30, 00019.65, 00031.67
1970-1-1 0:0:10.528,-00176.27, 00218.26, 00959.96,-00037.98, 00002.00,-00001.35, 00002.10, 00016.65, 00019.95, 00031.86
1970-1-1 0:0:10.573,-00262.70, 00221.68, 00968.75,-00045.47,-00014.70,-00013.87, 00002.40, 00015.90, 00019.95, 00031.72
1970-1-1 0:0:10.618,-00023.93, 00238.77, 00906.25,-00049.11,-00014.18,-00005.98, 00001.50, 00014.85, 00019.05, 00032.10
1970-1-1 0:0:10.663,-00146.48, 00149.41, 00920.90,-00034.98,-00005.85, 00001.83, 00001.50, 00010.35, 00018.60, 00031.72
1970-1-1 0:0:10.708,-00132.81, 00144.53, 00845.21,-00013.06, 00008.08,-00007.70, 00001.35, 00010.95, 00019.65, 00032.01
1970-1-1 0:0:10.753,-00068.36, 00092.77, 01004.88,-00029.69, 00047.26, 00009.95, 00000.00, 00008.40, 00019.35, 00031.86
1970-1-1 0:0:10.798,-00257.81, 00081.05, 01109.38,-00000.71, 00035.44,-00001.26, 00001.65, 00009.45, 00017.70, 00031.72
1970-1-1 0:0:10.843,-00184.08, 00206.05, 00995.12,-00015.67, 00034.89,-00014.68, 00003.60, 00009.75, 00019.20, 00031.67
1970-1-1 0:0:10.888,-00229.00, 00230.96, 01219.24,-00020.09, 00055.73,-00016.92, 00004.95, 00008.40, 00017.85, 00031.86
1970-1-1 0:0:10.933,-00236.82, 00135.25, 00936.52, 00034.54, 00040.11,-00017.63, 00007.05, 00009.45, 00016.95, 00031.86
1970-1-1 0:0:10.978,-00392.09, 00126.46, 00981.45,-00142.98, 00073.39, 00010.23, 00008.85, 00008.40, 00018.60, 00031.91
1970-1-1 0:0:11.023,-00332.52,-00068.85, 01057.13, 00029.81, 00037.14,-00005.47, 00011.40, 00007.35, 00016.50, 00032.01
1970-1-1 0:0:11.068,-00417.97, 00039.06, 01021.48, 00066.02, 00006.73,-00035.01, 00011.85, 00007.05, 00016.50, 00031.72
1970-1-1 0:0:11.113,-00435.06, 00062.50, 00783.20,-00071.88, 00001.47,-00040.21, 00011.25, 00008.40, 00016.80, 00031.86
1970-1-1 0:0:11.158,-00399.90,-00006.84, 00929.20,-00063.01,-00012.95,-00037.15, 00011.85, 00003.30, 00015.45, 00031.58
1970-1-1 0:0:11.203,-00338.38,-00115.72, 00957.03,-00070.10,-00026.29,-00028.93, 00010.05, 00001.50, 00016.80, 00031.91
1970-1-1 0:0:11.248,-00353.03,-00100.10, 00814.94,-00099.79,-00038.41,-00024.07, 00009.30,-00002.40, 00013.35, 00032.01
1970-1-1 0:0:11.315,-00245.61,-00179.69, 00833.98,-00080.61,-00062.82,-00009.06, 00006.60,-00003.90, 00012.15, 00031.67
1970-1-1 0:0:11.382,-00271.97,-00281.74, 01027.34,-00062.66,-00069.24,-00006.83, 00003.45,-00010.35, 00011.40, 00031.86
1970-1-1 0:0:11.449,-00226.56,-00389.65, 00993.16,-00028.04, 00001.68, 00007.02, 00000.90,-00011.85, 00009.30, 00031.91
1970-1-1 0:0:11.516,-00191.89,-00320.80, 01034.18,-00021.48, 00008.28, 00002.15, 00000.15,-00013.80, 00009.30, 00031.77
1970-1-1 0:0:11.583,-00224.61,-00394.53, 01000.49,-00053.65, 00015.06,-00005.62, 00001.05,-00016.05, 00004.95, 00031.91
1970-1-1 0:0:11.650,-00253.42,-00418.95, 00894.53,-00025.57, 00030.04,-00000.10, 00002.85,-00018.30, 00005.10, 00031.86
1970-1-1 0:0:11.717,-00316.41,-00478.03, 00801.27,-00020.72, 00076.79, 00005.67, 00004.20,-00019.65, 00001.80, 00031.91
1970-1-1 0:0:11.762,-00381.84,-00409.67, 00865.23, 00003.96, 00086.31, 00013.02, 00006.75,-00020.25, 00002.40, 00032.01
1970-1-1 0:0:11.807,-00401.86,-00497.56, 00723.63, 00019.08, 00114.38, 00006.53, 00010.50,-00018.90, 00000.30, 00032.01
1970-1-1 0:0:11.852,-00512.21,-00431.64, 00730.47, 00018.66, 00089.37, 00009.47, 00013.50,-00018.90, 00000.00, 00031.86
1970-1-1 0:0:11.897,-00514.16,-00396.48, 00741.70, 00022.44, 00052.21, 00000.89, 00016.20,-00017.70, 00000.75, 00031.91
1970-1-1 0:0:11.942,-00551.27,-00412.11, 00628.91, 00008.21, 00060.82, 00012.16, 00018.45,-00017.70,-00000.30, 00032.01
1970-1-1 0:0:11.987,-00599.12,-00386.72, 00730.47, 00019.34, 00060.76, 00014.85, 00019.50,-00017.10,-00000.90, 00031.77
1970-1-1 0:0:12.032,-00624.02,-00417.48, 00670.41, 00033.91, 00045.42, 00019.18, 00022.50,-00016.50,-00000.30, 00031.91
1970-1-1 0:0:12.077,-00644.04,-00305.66, 00699.22, 00037.95, 00030.94, 00028.74, 00024.00,-00013.65, 00000.30, 00032.10
1970-1-1 0:0:12.122,-00672.85,-00314.45, 00693.85, 00047.78,-00013.11, 00031.08, 00027.75,-00012.60, 00000.15, 00031.86
1970-1-1 0:0:12.167,-00787.11,-00250.98, 00718.75, 00093.69,-00051.30, 00040.54, 00025.20,-00011.55, 00002.25, 00031.72
1970-1-1 0:0:12.212,-00720.70,-00123.05, 00832.52, 00098.00,-00025.99, 00053.56, 00023.85,-00008.25, 00004.65, 00031.72
1970-1-1 0:0:12.257,-00712.40,-00056.15, 00915.53, 00119.14,-00053.13, 00056.24, 00025.65,-00002.40, 00007.50, 00031.77
1970-1-1 0:0:12.302,-00620.61, 00010.25, 00794.43, 00116.48,-00062.31, 00044.25, 00023.25, 00004.35, 00010.20, 00031.67
1970-1-1 0:0:12.347,-00471.19, 00114.26, 00758.79, 00101.49,-00039.53, 00055.60, 00021.90, 00007.05, 00012.30, 00031.91
1970-1-1 0:0:12.392,-00612.30, 00148.44, 00937.50, 00104.18,-00086.69, 00065.56, 00021.90, 00013.05, 00013.05, 00032.06
1970-1-1 0:0:12.437,-00406.74, 00232.42, 00694.34, 00069.05,-00113.10, 00049.44, 00017.85, 00019.35, 00015.90, 00032.10
1970-1-1 0:0:12.482,-00322.27, 00215.33, 00784.18, 00037.57,-00109.11, 00051.31, 00012.60, 00020.70, 00015.75, 00032.10
1970-1-1 0:0:12.527,-00270.51, 00280.27, 01002.44, 00003.89,-00157.49, 00071.31, 00008.55, 00022.50, 00017.55, 00032.10
1970-1-1 0:0:12.572,-00058.59, 00241.21, 00774.90, 00014.70,-00166.79, 00053.95, 00003.75, 00023.25, 00016.80, 00031.77
1970-1-1 0:0:12.617,-00019.04, 00395.02, 00898.93, 00017.30,-00127.27, 00060.41,-00004.20, 00023.70, 00017.55, 00031.72
1970-1-1 0:0:12.662, 00070.31, 00328.12, 00922.36,-00014.84,-00094.15, 00078.95,-00008.55, 00024.90, 00016.80, 00032.06
1970-1-1 0:0:12.707, 00160.16, 00328.12, 01010.74,-00016.02,-00084.00, 00061.92,-00013.20, 00022.95, 00015.90, 00031.86
1970-1-1 0:0:12.774, 00214.84, 00273.44, 00985.35,-00079.01,-00057.10, 00027.08,-00018.75, 00018.60, 00013.05, 00031.67
1970-1-1 0:0:12.841, 00294.92, 00205.08, 00914.06,-00104.20,-00024.73, 00031.65,-00020.55, 00012.45, 00013.35, 00032.06
1970-1-1 0:0:12.908, 00395.51, 00110.84, 00886.72,-00123.99,-00039.72, 00021.48,-00021.75, 00004.80, 00011.40, 00031.72
1970-1-1 0:0:12.975, 00409.67,-00033.20, 00843.26,-00124.66,-00025.36, 00029.48,-00023.10,-00002.10, 00008.55, 00032.10
1970-1-1 0:0:13.042, 00447.75,-00200.20, 00795.90,-00138.98, 00002.30, 00025.40,-00021.15,-00007.35, 00005.10, 00032.06
1970-1-1 0:0:13.109, 00369.63,-00293.95, 00841.80,-00119.35, 00018.09, 00010.28,-00020.40,-00013.80,-00000.15, 00031.77
1970-1-1 0:0:13.176, 00410.16,-00447.75, 00790.53,-00116.18, 00029.38, 00013.45,-00019.05,-00018.00,-00004.50, 00031.91
1970-1-1 0:0:13.221, 00316.41,-00532.71, 00741.70,-00104.21, 00023.64, 00011.72,-00016.65,-00021.75,-00006.00, 00032.01
1970-1-1 0:0:13.266, 00344.24,-00565.92, 00687.01,-00086.42, 00046.24, 00015.41,-00018.45,-00027.15,-00011.25, 00032.01
1970-1-1 0:0:13.311, 00245.12,-00626.95, 00705.57,-00054.79, 00070.95, 00015.70,-00016.65,-00026.55,-00013.35, 00031.91
1970-1-1 0:0:13.356, 00279.79,-00726.56, 00820.80,-00038.82, 00067.94, 00005.79,-00015.15,-00028.20,-00014.40, 00032.01
1970-1-1 0:0:13.401, 00209.47,-00655.76, 00655.76,-00029.44, 00077.69,-00003.63,-00013.50,-00028.95,-00013.65, 00031.86
1970-1-1 0:0:13.446, 00190.43,-00754.88, 00641.60,-00013.66, 00052.13, 00015.92,-00012.45,-00029.70,-00013.35, 00031.53
1970-1-1 0:0:13.491, 00116.21,-00790.53, 00735.84,-00048.57, 00059.92, 00000.99,-00010.65,-00028.80,-00015.45, 00031.91
1970-1-1 0:0:13.536, 00066.89,-00795.41, 00720.70,-00033.27, 00060.37,-00002.85,-00010.20,-00030.30,-00015.75, 00032.10
1970-1-1 0:0:13.581, 00071.29,-00796.39, 00727.05,-00038.64, 00030.29, 00006.34,-00010.50,-00030.60,-00017.55, 00032.01
1970-1-1 0:0:13.626, 00054.20,-00773.44, 00674.32,-00025.85, 00015.22, 00007.07,-00008.70,-00031.20,-00018.00, 00031.72
1970-1-1 0:0:13.671, 00070.80,-00746.09, 00611.82,-00013.85, 00003.31, 00006.63,-00009.30,-00033.00,-00018.30, 00032.01
1970-1-1 0:0:13.716, 00045.41,-00800.29, 00488.28,-00015.91, 00000.85, 00004.22,-00008.25,-00031.20,-00019.65, 00032.06
1970-1-1 0:0:13.761,-00002.93,-00826.66, 00567.38,-00013.02, 00006.73, 00000.48,-00008.25,-00033.15,-00019.95, 00031.72
1970-1-1 0:0:13.806, 00016.60,-00848.14, 00559.08,-00006.42, 00002.89, 00003.56,-00007.65,-00032.25,-00021.00, 00032.01
1970-1-1 0:0:13.851, 00023.93,-00830.08, 00589.84,-00007.09, 00003.05, 00002.07,-00007.35,-00031.35,-00020.10, 00032.10
1970-1-1 0:0:13.896, 00012.21,-00872.07, 00582.52,-00012.71, 00008.62, 00004.16,-00008.70,-00031.95,-00021.90, 00032.25
1970-1-1 0:0:13.941, 00024.90,-00860.84, 00554.69,-00007.75, 00008.52, 00005.62,-00007.50,-00032.40,-00020.70, 00031.77
1970-1-1 0:0:13.986, 00009.28,-00856.93, 00565.92,-00005.74, 00009.11, 00005.02,-00008.55,-00031.80,-00020.55, 00032.01
1970-1-1 0:0:14.031, 00000.00,-00836.43, 00536.13,-00003.56, 00003.85, 00003.68,-00007.05,-00031.95,-00022.20, 00032.01
1970-1-1 0:0:14.076,-00017.58,-00846.19, 00552.73,-00004.62, 00004.79, 00004.44,-00008.55,-00030.60,-00022.05, 00031.67
1970-1-1 0:0:14.121,-00016.60,-00859.86, 00584.47,-00002.34,-00000.52, 00003.49,-00007.05,-00032.85,-00021.90, 00031.72
1970-1-1 0:0:14.166,-00023.93,-00833.50, 00573.24, 00001.43, 00002.22, 00003.58,-00007.35,-00031.80,-00021.00, 00032.01
1970-1-1 0:0:14.211,-00032.71,-00831.54, 00532.23, 00004.72, 00019.06, 00004.72,-00005.70,-00032.25,-00021.30, 00032.10
1970-1-1 0:0:14.278,-00075.68,-00859.86, 00573.73, 00002.91, 00034.02, 00007.61,-00005.55,-00031.20,-00020.40, 00031.91
1970-1-1 0:0:14.345,-00094.24,-00850.10, 00543.95, 00004.34, 00067.76, 00014.08,-00005.55,-00031.50,-00020.40, 00032.10
1970-1-1 0:0:14.412,-00159.67,-00790.53, 00544.92, 00016.63, 00103.26, 00026.36,-00002.40,-00031.20,-00019.95, 00032.10
1970-1-1 0:0:14.479,-00214.84,-00783.69, 00527.34, 00045.20, 00093.46, 00034.63,-00000.30,-00031.35,-00018.60, 00032.06
1970-1-1 0:0:14.546,-00391.11,-00638.67, 00539.06, 00092.04, 00081.73, 00059.92, 00004.35,-00030.75,-00015.45, 00031.86
1970-1-1 0:0:14.613,-00505.86,-00579.10, 00763.67, 00106.08, 00062.76, 00076.50, 00009.00,-00027.15,-00011.25, 00031.72
1970-1-1 0:0:14.680,-00623.54,-00522.95, 00705.57, 00111.60, 00067.02, 00066.03, 00016.80,-00022.65,-00005.85, 00031.91
1970-1-1 0:0:14.725,-00769.53,-00439.94, 00792.48, 00110.69, 00073.82, 00060.66, 00020.10,-00018.45,-00004.95, 00032.01
1970-1-1 0:0:14.770,-00728.03,-00305.66, 00754.88, 00072.50, 00062.66, 00047.47, 00023.70,-00015.30,-00001.50, 00031.77
1970-1-1 0:0:14.815,-00769.04,-00233.40, 00742.19, 00094.56, 00053.08, 00034.96, 00026.70,-00012.00,-00000.75, 00031.72
1970-1-1 0:0:14.860,-00834.47,-00376.46, 00725.59, 00091.90, 00017.59, 00032.92, 00028.65,-00008.85, 00000.30, 00032.01
1970-1-1 0:0:14.905,-00729.49,-00198.73, 00633.79, 00061.77, 00023.69, 00037.50, 00028.50,-00005.70, 00002.10, 00031.86
1970-1-1 0:0:14.950,-00788.57,-00101.56, 00631.84, 00033.37, 00011.17, 00029.50, 00030.15,-00003.75, 00001.20, 00032.06
1970-1-1 0:0:14.995,-00776.37,-00123.54, 00671.88, 00045.44,-00008.53, 00031.53, 00032.25,-00001.95, 00003.00, 00032.25
1970-1-1 0:0:15.040,-00798.34,-00050.78, 00654.79, 00026.86, 00001.21, 00030.29, 00032.40, 00002.55, 00003.15, 00032.01
1970-1-1 0:0:15.085,-00730.96, 00001.95, 00660.16, 00024.01,-00018.44, 00028.69, 00033.45, 00003.15, 00005.25, 00031.72
1970-1-1 0:0:15.130,-00782.23, 00024.41, 00639.16, 00064.66,-00024.12, 00042.28, 00031.95, 00004.50, 00004.65, 00031.86
1970-1-1 0:0:15.175,-00739.75, 00113.77, 00673.34, 00046.74,-00024.53, 00047.91, 00031.50, 00007.95, 00006.00, 00032.01
1970-1-1 0:0:15.220,-00730.47, 00185.06, 00788.57, 00082.27,-00064.63, 00058.27, 00031.65, 00010.65, 00008.10, 00032.06
1970-1-1 0:0:15.265,-00706.54, 00256.84, 00725.59, 00105.11,-00053.34, 00072.46, 00029.70, 00014.70, 00009.30, 00032.06
1970-1-1 0:0:15.310,-00595.21, 00318.85, 00663.09, 00074.78,-00055.77, 00069.21, 00025.65, 00020.55, 00009.45, 00032.10
1970-1-1 0:0:15.355,-00589.84, 00428.22, 00722.66, 00084.63,-00078.96, 00073.30, 00027.00, 00021.90, 00010.80, 00031.91
1970-1-1 0:0:15.400,-00474.12, 00488.77, 00660.64, 00148.63,-00084.58, 00113.73, 00021.15, 00030.00, 00012.30, 00031.91
1970-1-1 0:0:15.445,-00389.16, 00738.28, 00603.52, 00065.75,-00134.26, 00165.93, 00016.80, 00036.75, 00012.30, 00032.25
1970-1-1 0:0:15.490,-00107.42, 00431.64, 00697.27, 00073.70,-00105.11, 00139.59, 00008.70, 00039.30, 00013.05, 00032.01
1970-1-1 0:0:15.535,-00159.18, 00734.86, 00797.85, 00081.15,-00028.39, 00060.61, 00004.05, 00043.20, 00012.00, 00031.86
1970-1-1 0:0:15.580,-00213.87, 00833.50, 00768.55, 00069.46,-00029.40, 00034.00, 00004.05, 00046.50, 00010.05, 00032.10
1970-1-1 0:0:15.625,-00132.32, 00770.02, 00519.53, 00071.85, 00001.15, 00041.98, 00001.35, 00048.15, 00009.30, 00031.91
1970-1-1 0:0:15.670,-00045.41, 00823.73, 00436.52, 00053.72, 00027.12, 00047.27, 00001.80, 00051.60, 00007.20, 00032.10
1970-1-1 0:0:15.737, 00005.86, 00745.61, 00401.86, 00013.15,-00015.11, 00037.15,-00000.30, 00053.55, 00007.50, 00032.01
1970-1-1 0:0:15.804, 00023.44, 00793.46, 00462.89,-00038.15,-00022.06, 00019.06,-00001.65, 00054.60, 00006.30, 00031.91
1970-1-1 0:0:15.871, 00114.26, 00779.79, 00560.55,-00067.15,-00063.64, 00029.18,-00003.45, 00049.50, 00009.15, 00032.06
1970-1-1 0:0:15.938, 00163.09, 00778.32, 00609.38,-00108.08,-00077.15, 00037.50,-00007.35, 00045.15, 00010.95, 00032.06
1970-1-1 0:0:16.05, 00277.83, 00602.05, 00788.57,-00115.80,-00064.81, 00047.29,-00012.90, 00038.85, 00012.75, 00031.91
1970-1-1 0:0:16.072, 00361.82, 00568.85, 00810.06,-00124.06,-00069.04, 00051.92,-00017.25, 00030.75, 00013.05, 00031.91
1970-1-1 0:0:16.139, 00437.50, 00445.31, 00832.52,-00151.86,-00072.26, 00044.52,-00022.65, 00021.15, 00011.25, 00032.10
1970-1-1 0:0:16.184, 00444.34, 00287.60, 00876.46,-00151.55,-00021.92, 00014.11,-00023.85, 00014.70, 00010.50, 00032.01
1970-1-1 0:0:16.229, 00442.38, 00167.97, 00976.56,-00130.76,-00046.35, 00007.88,-00025.80, 00010.95, 00010.80, 00031.91
1970-1-1 0:0:16.274, 00544.43, 00102.05, 00825.20,-00106.76,-00039.54, 00008.05,-00026.40, 00005.10, 00009.45, 00032.10
1970-1-1 0:0:16.319, 00535.64, 00046.39, 00845.21,-00089.06,-00035.37, 00011.21,-00026.40, 00001.95, 00006.45, 00032.01
1970-1-1 0:0:16.364, 00568.36,-00060.06, 00804.69,-00085.84,-00011.31, 00009.60,-00027.15,-00001.20, 00005.70, 00032.01
1970-1-1 0:0:16.409, 00569.82,-00149.41, 00852.05,-00071.34, 00013.02, 00019.78,-00026.55,-00004.95, 00004.65, 00032.10
1970-1-1 0:0:16.454, 00478.03,-00154.30, 00840.33,-00075.23, 00049.50, 00011.38,-00027.90,-00007.95, 00002.25, 00031.77
1970-1-1 0:0:16.499, 00481.45,-00172.36, 00942.38,-00071.05, 00090.18, 00031.56,-00026.55,-00008.55, 00000.90, 00032.10
1970-1-1 0:0:16.544, 00324.22,-00307.13, 00768.55,-00056.58, 00105.55, 00022.07,-00020.55,-00012.45, 00003.00, 00032.10
1970-1-1 0:0:16.589, 00312.50,-00263.67, 00940.92,-00045.98, 00121.79, 00027.18,-00016.65,-00014.10, 00002.55, 00032.01
1970-1-1 0:0:16.634, 00268.07,-00209.96, 00975.59,-00043.85, 00100.66, 00009.73,-00013.95,-00016.05, 00001.80, 00032.10
1970-1-1 0:0:16.679, 00259.77,-00368.65, 00797.36,-00030.47, 00085.34,-00013.64,-00010.80,-00015.30, 00003.30, 00032.06
1970-1-1 0:0:16.724, 00192.87,-00259.77, 00776.37, 00005.40, 00079.99,-00020.70,-00009.45,-00017.85, 00003.90, 00032.01
1970-1-1 0:0:16.769, 00041.99,-00323.24, 00872.07, 00002.62, 00065.46,-00015.31,-00006.75,-00017.85, 00004.35, 00032.25
1970-1-1 0:0:16.814, 00045.41,-00330.57, 00918.46, 00007.81, 00039.40,-00000.47,-00007.05,-00016.20, 00003.90, 00032.20
1970-1-1 0:0:16.859, 00008.79,-00355.96, 00967.77, 00030.11, 00022.81,-00001.80,-00005.70,-00017.70, 00004.50, 00032.01
1970-1-1 0:0:16.904,-00000.98,-00301.76, 00990.72, 00016.18, 00011.06,-00007.12,-00004.35,-00013.05, 00005.25, 00032.06
1970-1-1 0:0:16.949, 00058.59,-00318.85, 00896.97, 00010.83, 00012.28,-00006.16,-00004.20,-00014.85, 00005.70, 00032.06
1970-1-1 0:0:16.994,-00031.74,-00323.24, 00945.31, 00012.68, 00018.78,-00010.01,-00004.20,-00014.85, 00006.00, 00031.77
1970-1-1 0:0:17.039,-00034.18,-00270.51, 00880.86, 00006.99, 00010.18,-00007.24,-00004.05,-00015.90, 00007.05, 00031.86
1970-1-1 0:0:17.084, 00002.93,-00279.30, 00933.11,-00006.52,-00007.73,-00008.60,-00003.60,-00012.60, 00006.60, 00031.91
1970-1-1 0:0:17.129, 00002.93,-00370.12, 00974.12,-00000.99,-00012.21,-00012.51,-00005.40,-00013.20, 00006.75, 00031.91
1970-1-1 0:0:17.174,-00059.08,-00172.85, 00867.68, 00002.02,-00010.16,-00007.99,-00003.60,-00013.80, 00007.35, 00031.91
1970-1-1 0:0:17.241, 00121.09, 00060.55, 00736.33, 00093.28,-00009.37,-00005.53,-00006.00,-00013.50, 00008.55, 00032.10
1970-1-1 0:0:17.308, 00104.49,-00187.99, 00679.20, 00092.65,-00084.78, 00012.33,-00009.00,-00007.05, 00011.55, 00031.91
1970-1-1 0:0:17.375,-00074.71, 00332.03, 00209.96,-00105.89,-00073.18, 00027.31,-00005.55,-00004.50, 00015.75, 00032.01
1970-1-1 0:0:17.442,-00027.34,-00039.55, 00903.32, 00022.18, 00011.63,-00000.26,-00007.05,-00004.95, 00015.45, 00032.01
1970-1-1 0:0:17.509, 00014.16,-00116.21, 00952.64, 00011.53, 00001.98, 00000.73,-00006.90,-00003.60, 00014.40, 00032.01
1970-1-1 0:0:17.576, 00009.28,-00096.19, 01000.98,-00000.08,-00003.24, 00000.44,-00006.30,-00002.10, 00014.70, 00032.01
1970-1-1 0:0:17.643,-00015.14,-00090.33, 01017.09,-00001.31, 00002.49,-00004.05,-00005.70,-00002.40, 00015.15, 00032.06
1970-1-1 0:0:17.688, 00000.49,-00085.45, 01008.79,-00003.78,-00002.72, 00000.00,-00006.75,-00004.50, 00015.45, 00031.91
1970-1-1 0:0:17.733,-00010.74,-00085.45, 01009.28, 00001.41,-00002.00, 00003.05,-00006.60,-00004.35, 00015.60, 00032.10
1970-1-1 0:0:17.778,-00020.02,-00091.80, 01007.32,-00000.83,-00000.34, 00002.03,-00004.35,-00003.30, 00015.00, 00031.91
1970-1-1 0:0:17.823,-00014.65,-00090.82, 01011.72,-00000.32,-00003.17, 00001.53,-00005.55,-00003.75, 00014.70, 00032.10
1970-1-1 0:0:17.868,-00011.23,-00103.03, 01001.46, 00000.43,-00003.75, 00003.14,-00004.20,-00004.80, 00015.15, 00032.20
1970-1-1 0:0:17.913,-00007.81,-00100.59, 01016.60,-00001.69,-00000.27,-00000.31,-00006.75,-00003.75, 00014.70, 00032.25
1970-1-1 0:0:17.958,-00010.25,-00098.63, 01008.79,-00002.95, 00001.65, 00001.39,-00006.00,-00004.50, 00013.50, 00032.10
1970-1-1 0:0:18.03,-00009.77,-00083.98, 01009.28,-00001.70,-00002.32,-00001.23,-00004.80,-00003.75, 00013.80, 00031.72
1970-1-1 0:0:18.048,-00011.72,-00072.27, 00946.78,-00000.44,-00000.54, 00000.25,-00006.00,-00003.30, 00013.50, 00031.91
1970-1-1 0:0:18.093,-00039.55,-00117.68, 01019.53, 00000.15, 00001.74, 00001.79,-00007.95,-00002.55, 00015.45, 00032.06
1970-1-1 0:0:18.138,-00015.62,-00109.38, 01008.79,-00002.00,-00002.63,-00005.66,-00005.40,-00003.90, 00013.65, 00031.91
1970-1-1 0:0:18.183, 00004.88,-00107.42, 00946.29,-00002.98,-00000.84,-00001.66,-00006.30,-00004.20, 00014.70, 00032.01
1970-1-1 0:0:18.228, 00000.00,-00104.49, 01000.00,-00003.52,-00000.60,-00002.32,-00005.70,-00002.40, 00014.10, 00032.20
1970-1-1 0:0:18.273, 00013.67,-00061.04, 00984.86,-00001.14, 00002.50,-00001.11,-00007.35,-00004.35, 00014.85, 00032.25
1970-1-1 0:0:18.318,-00017.09,-00074.22, 01008.30,-00000.44,-00002.45, 00002.71,-00007.65,-00003.15, 00014.85, 00031.72
1970-1-1 0:0:18.363,-00014.16,-00088.38, 01008.79, 00001.05,-00001.68, 00000.26,-00005.70,-00003.15, 00015.15, 00032.10
1970-1-1 0:0:18.408,-00007.32,-00088.87, 00993.16, 00001.63, 00005.10, 00001.44,-00005.55,-00003.00, 00013.50, 00032.01
1970-1-1 0:0:18.453,-00012.70,-00086.91, 01009.28,-00003.98,-00000.87,-00001.82,-00007.05,-00004.50, 00015.00, 00032.10
1970-1-1 0:0:18.498,-00005.37,-00061.04, 01001.95, 00000.48, 00000.76, 00001.22,-00006.15,-00003.15, 00014.10, 00032.10
1970-1-1 0:0:18.543,-00003.42,-00094.24, 01006.35, 00000.33,-00003.76,-00001.63,-00006.00,-00004.20, 00014.25, 00032.20
1970-1-1 0:0:18.588, 00002.44,-00052.73, 00961.43,-00004.24, 00001.11, 00001.28,-00006.00,-00003.30, 00014.25, 00032.20
1970-1-1 0:0:18.633,-00005.86,-00099.12, 01039.55,-00000.24,-00000.84, 00001.05,-00006.90,-00004.35, 00015.15, 00032.01
1970-1-1 0:0:18.700,-00009.77,-00061.04, 00974.61,-00002.66, 00000.00, 00001.60,-00006.30,-00003.75, 00014.25, 00032.25
1970-1-1 0:0:18.767, 00000.49,-00100.10, 00993.16,-00000.07,-00003.56, 00000.93,-00006.90,-00003.15, 00014.10, 00031.77
1970-1-1 0:0:18.834,-00016.60,-00085.94, 01016.60, 00001.60,-00001.09, 00000.33,-00006.75,-00004.50, 00015.45, 00032.25
1970-1-1 0:0:18.901,-00016.11,-00088.38, 00968.26,-00003.27, 00002.76,-00000.86,-00006.00,-00004.20, 00015.00, 00031.77
1970-1-1 0:0:18.968,-00017.09,-00061.04, 01030.27,-00005.83,-00000.69,-00000.02,-00007.35,-00003.15, 00014.40, 00032.10
1970-1-1 0:0:19.035,-00019.53,-00085.94, 01015.14,-00002.72,-00000.68, 00001.16,-00007.50,-00003.75, 00014.70, 00031.91
1970-1-1 0:0:19.102,-00016.60,-00077.15, 01002.44,-00005.66,-00003.82,-00000.34,-00006.00,-00004.50, 00016.95, 00032.10
1970-1-1 0:0:19.147,-00002.93,-00102.05, 00981.45,-00001.11, 00000.29, 00000.62,-00007.50,-00004.95, 00015.45, 00031.72
1970-1-1 0:0:19.192,-00000.49,-00077.64, 00985.35,-00005.98,-00000.50, 00001.29,-00006.30,-00004.20, 00015.45, 00031.86
1970-1-1 0:0:19.237,-00009.28,-00082.52, 01009.28,-00003.56,-00000.93, 00000.36,-00006.30,-00004.95, 00015.45, 00032.01
1970-1-1 0:0:19.282,-00008.79,-00101.07, 01004.39, 00000.57,-00002.48, 00002.52,-00006.90,-00003.15, 00014.85, 00032.25
1970-1-1 0:0:19.327,-00011.23,-00093.75, 00989.75, 00000.92, 00001.24,-00000.16,-00007.65,-00003.90, 00013.35, 00031.72
1970-1-1 0:0:19.372,-00001.95,-00085.45, 00995.61,-00001.87,-00000.89,-00000.18,-00005.70,-00003.60, 00015.15, 00032.01
1970-1-1 0:0:19.417,-00015.14,-00080.08, 00996.58,-00000.31, 00003.02, 00000.66,-00006.15,-00003.90, 00014.10, 00032.20
1970-1-1 0:0:19.462,-00001.46,-00099.61, 00993.65,-00001.20,-00001.32, 00000.45,-00005.55,-00003.75, 00015.75, 00031.91
1970-1-1 0:0:19.507,-00007.32,-00108.40, 01007.32,-00001.16,-00002.98, 00002.02,-00007.35,-00005.10, 00015.60, 00032.10
1970-1-1 0:0:19.552,-00014.65,-00083.50, 01008.30,-00002.84, 00001.14,-00001.25,-00006.90,-00003.60, 00016.35, 00032.10
1970-1-1 0:0:19.597,-00004.39,-00099.12, 00991.21, 00000.58, 00001.53, 00001.53,-00006.00,-00001.80, 00015.45, 00032.10
1970-1-1 0:0:19.642,-00002.44,-00099.12, 00995.61,-00000.45, 00001.27, 00002.65,-00007.35,-00003.90, 00014.40, 00032.20
1970-1-1 0:0:19.687,-00014.16,-00098.63, 00992.68,-00002.69,-00001.08,-00000.61,-00006.00,-00003.75, 00014.70, 00032.20
1970-1-1 0:0:19.732,-00037.60,-00059.08, 00994.14,-00003.13, 00001.82,-00002.44,-00005.70,-00003.90, 00015.60, 00032.10
1970-1-1 0:0:19.777,-00001.95,-00072.75, 00999.51, 00001.56, 00000.68, 00005.58,-00006.75,-00003.30, 00014.70, 00031.72
1970-1-1 0:0:19.822,-00019.04,-00104.49, 01004.88,-00000.14,-00002.20, 00002.67,-00007.95,-00003.00, 00014.70, 00032.20
1970-1-1 0:0:19.867,-00017.58,-00087.89, 01009.77,-00003.72, 00000.15, 00000.04,-00006.15,-00004.35, 00012.90, 00032.10
1970-1-1 0:0:19.912,-00014.16,-00092.77, 01004.39,-00001.00,-00000.11,-00000.63,-00005.25,-00003.75, 00015.45, 00032.01
1970-1-1 0:0:19.957,-00013.18,-00102.05, 01003.91, 00001.37,-00002.96, 00001.83,-00006.00,-00003.30, 00014.70, 00031.86
1970-1-1 0:0:20.02,-00024.90,-00098.14, 01014.65,-00000.72,-00002.84,-00000.98,-00006.60,-00003.60, 00014.40, 00032.01
1970-1-1 0:0:20.047,-00027.83,-00097.66, 00989.26,-00004.87,-00001.43,-00004.04,-00006.60,-00003.15, 00015.15, 00032.10
1970-1-1 0:0:20.092,-00018.55,-00014.16, 01046.39,-00002.94,-00001.51, 00001.94,-00006.30,-00004.50, 00015.00, 00031.91
1970-1-1 0:0:20.137,-00003.42,-00084.96, 01006.84,-00001.12,-00002.08, 00002.27,-00005.55,-00003.00, 00015.00, 00032.20
1970-1-1 0:0:20.204,-00012.70,-00076.17, 01010.74, 00003.24, 00001.47, 00001.19,-00004.35,-00004.50, 00014.70, 00032.20
1970-1-1 0:0:20.271,-00017.58,-00078.12, 01035.16,-00000.15,-00000.18, 00005.40,-00004.20,-00003.15, 00015.15, 00032.20
1970-1-1 0:0:20.338,-00007.81,-00108.89, 01000.00,-00001.47,-00003.01, 00002.69,-00007.50,-00002.55, 00013.80, 00032.01
1970-1-1 0:0:20.405,-00025.39,-00082.03, 01035.16, 00000.73,-00004.31, 00000.33,-00005.25,-00003.00, 00014.25, 00032.25
1970-1-1 0:0:20.472,-00002.93,-00106.45, 00981.45,-00000.05, 00002.08, 00001.05,-00005.40,-00004.35, 00015.60, 00032.10
1970-1-1 0:0:20.539,-00016.60,-00087.40, 01000.00,-00003.83, 00001.01,-00000.80,-00005.55,-00003.00, 00015.75, 00032.20
1970-1-1 0:0:20.606,-00001.95,-00082.03, 01018.07, 00003.34,-00004.07, 00002.41,-00005.55,-00003.30, 00013.80, 00032.10
1970-1-1 0:0:20.651,-00027.34,-00090.82, 00993.65,-00005.75,-00004.36,-00001.44,-00005.25,-00002.55, 00014.70, 00032.10
1970-1-1 0:0:20.696,-00017.58,-00072.27, 01004.88,-00007.11, 00001.37,-00000.94,-00005.40,-00003.15, 00014.40, 00032.10
1970-1-1 0:0:20.741,-00026.37,-00081.05, 01027.34, 00001.07,-00003.95, 00002.66,-00006.30,-00003.75, 00015.45, 00032.20
1970-1-1 0:0:20.786,-00005.86,-00090.82, 00991.21, 00002.03,-00000.14, 00003.27,-00007.35,-00001.95, 00015.60, 00031.72
1970-1-1 0:0:20.831, 00002.93,-00080.08, 00997.56, 00001.20, 00000.60,-00002.05,-00006.15,-00004.80, 00013.65, 00032.06
1970-1-1 0:0:20.876,-00002.44,-00065.43, 00939.94, 00001.07, 00001.71, 00002.39,-00006.00,-00003.75, 00013.80, 00032.25
1970-1-1 0:0:20.921, 00004.88,-00005.86, 01167.97,-00004.89,-00001.91, 00001.92,-00005.55,-00003.30, 00015.00, 00032.01
1970-1-1 0:0:20.966,-00026.37,-00065.43, 01026.37,-00006.91,-00001.73,-00000.48,-00006.75,-00003.30, 00013.80, 00032.10
1970-1-1 0:0:21.011,-00007.32,-00076.66, 00987.79, 00001.82, 00000.37,-00002.49,-00004.35,-00003.30, 00014.70, 00032.25
1970-1-1 0:0:21.056, 00005.37,-00092.77, 01003.42,-00000.08,-00002.31, 00002.08,-00006.30,-00004.20, 00015.45, 00032.10
1970-1-1 0:0:21.101, 00000.49,-00092.29, 00994.63,-00003.89, 00000.45, 00003.72,-00006.00,-00003.75, 00012.75, 00031.91
1970-1-1 0:0:21.146,-00024.41,-00086.91, 01001.46,-00002.23, 00000.42,-00000.94,-00006.30,-00004.20, 00013.80, 00032.10
1970-1-1 0:0:21.191,-00005.86,-00067.87, 01012.70, 00001.21, 00001.14,-00000.84,-00006.30,-00002.55, 00015.00, 00032.10
1970-1-1 0:0:21.236,-00003.91,-00081.54, 00982.91, 00001.85,-00000.44, 00000.82,-00005.70,-00003.60, 00014.85, 00031.77
1970-1-1 0:0:21.281,-00003.91,-00090.82, 01005.37,-00002.79,-00001.32, 00000.50,-00006.15,-00003.90, 00015.60, 00031.86
1970-1-1 0:0:21.326,-00015.14,-00075.68, 01005.86,-00002.35, 00000.23, 00000.06,-00006.15,-00004.80, 00014.85, 00032.06
1970-1-1 0:0:21.371,-00021.97,-00142.58, 00906.74,-00001.93, 00000.08, 00000.46,-00006.00,-00003.75, 00015.00, 00032.25
1970-1-1 0:0:21.416, 00001.95,-00085.94, 01004.88, 00000.47,-00003.30, 00001.82,-00005.40,-00003.60, 00014.40, 00032.01
1970-1-1 0:0:21.461,-00025.88,-00047.85, 01022.46,-00003.71, 00001.35, 00000.27,-00006.00,-00004.50, 00014.25, 00032.10
1970-1-1 0:0:21.506,-00013.18,-00076.66, 01011.23,-00001.31, 00000.55, 00000.62,-00006.00,-00004.20, 00013.50, 00032.01
1970-1-1 0:0:21.551,-00015.14,-00083.98, 01018.55,-00000.27,-00003.58, 00000.24,-00006.15,-00003.90, 00014.40, 00032.01
1970-1-1 0:0:21.596, 00002.93,-00093.75, 00997.07, 00001.77,-00003.66, 00001.65,-00005.70,-00002.70, 00015.15, 00032.10
1970-1-1 0:0:21.663,-00016.11,-00081.54, 01013.67,-00000.47,-00001.84, 00001.69,-00006.30,-00003.00, 00014.70, 00032.01
1970-1-1 0:0:21.730,-00010.74,-00095.70, 00998.54,-00000.89, 00004.51,-00002.20,-00005.25,-00003.00, 00015.75, 00032.25
1970-1-1 0:0:21.797, 00001.95,-00084.96, 01016.60,-00004.14,-00001.94, 00001.07,-00006.15,-00003.60, 00015.60, 00032.25
1970-1-1 0:0:21.864,-00020.51,-00101.07, 01026.37, 00002.86,-00003.26, 00000.10,-00006.60,-00002.70, 00014.40, 00032.01
1970-1-1 0:0:21.931, 00000.49,-00096.68, 01000.49,-00003.23,-00004.50, 00000.09,-00006.15,-00003.60, 00014.85, 00032.25
1970-1-1 0:0:21.998,-00013.67,-00090.33, 00997.56,-00000.40, 00001.80, 00000.39,-00006.75,-00002.10, 00014.25, 00032.10
1970-1-1 0:0:22.065,-00006.84,-00082.52, 00998.05, 00001.21, 00000.46, 00001.86,-00006.90,-00004.35, 00014.40, 00032.01
1970-1-1 0:0:22.110,-00006.84,-00087.40, 01006.35,-00001.35, 00000.85,-00002.47,-00006.30,-00003.30, 00014.70, 00032.10
1970-1-1 0:0:22.155,-00011.23,-00083.50, 00996.58,-00003.28, 00000.61,-00000.31,-00006.15,-00004.35, 00012.90, 00032.01
1970-1-1 0:0:22.200,-00006.84,-00097.66, 00990.23,-00000.15,-00002.23,-00000.17,-00007.35,-00003.15, 00015.60, 00032.10
1970-1-1 0:0:22.245,-00007.32,-00086.91, 00992.19,-00000.89, 00001.88,-00000.32,-00005.55,-00004.95, 00015.45, 00032.10
1970-1-1 0:0:22.290,-00008.30,-00092.77, 00996.09,-00004.25, 00002.00,-00000.80,-00006.75,-00003.30, 00014.70, 00032.25
1970-1-1 0:0:22.335,-00010.74,-00074.22, 01014.16,-00000.06,-00001.70,-00001.11,-00006.00,-00004.20, 00013.05, 00032.10
1970-1-1 0:0:22.380,-00007.32,-00087.89, 00993.65, 00001.10,-00001.87, 00000.24,-00005.55,-00004.50, 00015.00, 00031.91
1970-1-1 0:0:22.425,-00004.39,-00088.87, 01005.37,-00002.08, 00000.33,-00000.49,-00006.30,-00003.75, 00015.00, 00032.10
1970-1-1 0:0:22.470,-00014.65,-00089.36, 00999.02,-00002.04,-00000.82, 00001.39,-00006.75,-00004.50, 00014.25, 00032.25
1970-1-1 0:0:22.515, 00000.00,-00084.47, 01005.37,-00001.21,-00001.98, 00003.05,-00006.30,-00004.20, 00015.45, 00032.10
1970-1-1 0:0:22.560,-00010.74,-00081.05, 00996.09, 00000.67,-00002.95, 00001.50,-00006.00,-00004.95, 00014.25, 00031.91
1970-1-1 0:0:22.605,-00013.18,-00103.52, 01005.86,-00002.37, 00002.72,-00000.27,-00005.55,-00003.00, 00014.25, 00032.10
1970-1-1 0:0:22.650,-00020.51,-00074.22, 00992.68,-00001.95, 00000.98, 00001.59,-00006.60,-00003.90, 00014.85, 00032.25
1970-1-1 0:0:22.695,-00010.25,-00083.98, 01011.72,-00000.07, 00002.46, 00002.34,-00005.55,-00004.20, 00014.25, 00031.86
1970-1-1 0:0:22.740,-00012.70,-00081.54, 01000.49,-00003.05,-00000.19, 00001.32,-00006.30,-00004.50, 00015.45, 00032.06
1970-1-1 0:0:22.785,-00000.49,-00098.14, 01017.58,-00003.68, 00000.96,-00000.95,-00006.30,-00004.50, 00013.80, 00032.10
1970-1-1 0:0:22.830,-00006.84,-00080.08, 00993.65, 00001.52,-00002.41, 00000.43,-00006.30,-00003.30, 00015.00, 00032.10
1970-1-1 0:0:22.875,-00014.65,-00132.81, 00995.12, 00001.82,-00000.61, 00004.02,-00004.95,-00002.70, 00013.35, 00032.01
1970-1-1 0:0:22.920, 00002.44,-00109.86, 00983.40,-00001.57, 00002.37,-00000.47,-00006.15,-00003.15, 00014.40, 00032.29
1970-1-1 0:0:22.965,-00024.41,-00085.94, 01035.16,-00000.18, 00003.05,-00000.51,-00007.50,-00003.30, 00015.45, 00032.20
1970-1-1 0:0:23.010,-00035.64,-00025.88, 01087.89, 00002.02, 00000.45, 00002.71,-00006.30,-00004.20, 00015.00, 00032.06
1970-1-1 0:0:23.055,-00011.23,-00104.00, 00979.00,-00000.85, 00001.90,-00001.69,-00007.05,-00004.50, 00014.25, 00032.25
1970-1-1 0:0:23.100,-00013.67,-00083.50, 01010.25,-00002.24, 00003.25,-00000.75,-00006.30,-00003.30, 00015.45, 00032.10
1970-1-1 0:0:23.167,-00007.32,-00088.87, 00991.21,-00001.92,-00000.02,-00000.70,-00006.60,-00002.70, 00014.40, 00032.25
1970-1-1 0:0:23.234,-00003.91,-00083.01, 01009.28,-00001.01, 00001.04,-00001.08,-00006.15,-00003.90, 00014.40, 00032.20
1970-1-1 0:0:23.301, 00004.88,-00174.32, 00807.13,-00000.78, 00004.46,-00001.24,-00006.60,-00003.15, 00016.35, 00032.10
1970-1-1 0:0:23.368,-00010.25,-00083.98, 01012.21,-00000.19,-00001.01,-00000.97,-00004.95,-00005.10, 00015.15, 00032.10
1970-1-1 0:0:23.435,-00014.65,-00088.38, 01003.42, 00000.98,-00001.69, 00001.47,-00007.50,-00003.75, 00013.50, 00032.10
1970-1-1 0:0:23.502,-00018.07,-00089.84, 01000.98,-00000.74,-00002.23, 00000.16,-00007.05,-00003.00, 00015.75, 00032.29
1970-1-1 0:0:23.569,-00008.79,-00095.21, 01010.25,-00002.65, 00001.60, 00000.85,-00006.60,-00003.90, 00013.35, 00032.25
1970-1-1 0:0:23.614,-00006.84,-00084.96, 01010.25,-00000.06,-00003.15, 00002.85,-00006.00,-00004.20, 00013.80, 00032.20
1970-1-1 0:0:23.659,-00007.81,-00076.66, 00999.51,-00003.59,-00002.64,-00001.22,-00006.30,-00003.75, 00014.70, 00032.25
1970-1-1 0:0:23.704,-00016.60,-00088.38, 01003.91,-00001.30, 00001.34, 00000.73,-00006.00,-00003.30, 00015.00, 00031.91
1970-1-1 0:0:23.749,-00009.28,-00080.08, 00991.70,-00000.24, 00001.90, 00001.26,-00005.55,-00003.75, 00014.25, 00032.01
1970-1-1 0:0:23.794,-00010.25,-00096.68, 00990.23, 00000.47, 00000.44, 00000.48,-00006.00,-00003.30, 00015.45, 00032.20
1970-1-1 0:0:23.839,-00021.00,-00100.59, 01006.84,-00000.79, 00003.14, 00002.22,-00006.60,-00003.60, 00014.10, 00032.25
1970-1-1 0:0:23.884,-00021.00,-00080.08, 00995.12,-00002.21, 00002.92, 00001.17,-00006.00,-00003.75, 00015.00, 00032.25
1970-1-1 0:0:23.929,-00013.18,-00087.40, 01003.42, 00000.71,-00001.93, 00001.05,-00004.95,-00003.15, 00014.40, 00032.01
1970-1-1 0:0:23.974,-00011.23,-00079.59, 01001.95, 00001.59,-00002.13, 00000.66,-00007.95,-00003.75, 00013.50, 00032.06
1970-1-1 0:0:24.019,-00013.67,-00079.59, 01000.98,-00001.92,-00001.09, 00001.07,-00007.05,-00004.20, 00015.75, 00031.86
1970-1-1 0:0:24.064,-00017.58,-00080.08, 01008.30,-00000.69, 00000.86,-00001.56,-00006.30,-00004.95, 00015.45, 00032.10
1970-1-1 0:0:24.109,-00007.32,-00085.45, 00993.65,-00000.94,-00001.27, 00001.30,-00006.15,-00003.60, 00014.85, 00032.10
1970-1-1 0:0:24.154,-00012.70,-00116.70, 00989.26, 00001.48,-00001.01, 00003.40,-00006.60,-00003.15, 00014.40, 00032.25
1970-1-1 0:0:24.199,-00005.37,-00068.36, 01000.49,-00000.31, 00000.95,-00003.58,-00006.15,-00003.90, 00014.10, 00032.10
1970-1-1 0:0:24.244,-00011.72,-00081.05, 01005.86,-00000.63, 00001.47,-00002.20,-00006.90,-00005.55, 00014.10, 00032.39
1970-1-1 0:0:24.289, 00000.98,-00087.40, 01007.81, 00000.21,-00001.04, 00001.02,-00006.75,-00003.75, 00016.20, 00032.25
1970-1-1 0:0:24.334,-00023.93,-00088.38, 01020.51,-00001.81, 00002.54,-00002.81,-00006.15,-00003.90, 00013.65, 00032.25
1970-1-1 0:0:24.379,-00009.77,-00083.50, 01004.88,-00002.05,-00001.99,-00001.76,-00006.15,-00003.15, 00015.15, 00032.01
1970-1-1 0:0:24.424,-00006.35,-00082.03, 01000.98, 00001.33,-00001.61, 00000.68,-00006.15,-00003.60, 00014.85, 00032.39
1970-1-1 0:0:24.469,-00011.72,-00082.03, 00997.56, 00000.37,-00002.59, 00003.54,-00006.30,-00004.50, 00014.70, 00032.10
1970-1-1 0:0:24.514,-00012.70,-00106.93, 01008.79,-00003.25, 00000.11,-00000.11,-00007.05,-00004.50, 00013.50, 00032.10
1970-1-1 0:0:24.559,-00014.65,-00090.82, 01005.37,-00002.24, 00000.98, 00000.91,-00004.80,-00003.30, 00015.00, 00032.10
1970-1-1 0:0:24.626,-00001.46,-00085.94, 00996.58,-00003.13,-00000.11, 00001.44,-00005.55,-00003.75, 00015.45, 00032.10
1970-1-1 0:0:24.693,-00018.55,-00101.07, 00987.30,-00001.63,-00001.27, 00003.31,-00006.30,-00003.75, 00014.25, 00032.25
1970-1-1 0:0:24.760,-00013.67,-00080.08, 01004.88, 00000.91,-00000.74,-00000.72,-00006.75,-00003.75, 00015.75, 00032.10
1970-1-1 0:0:24.827,-00018.55,-00079.59, 01015.14,-00002.20, 00000.19,-00001.81,-00007.50,-00003.75, 00014.70, 00032.06
1970-1-1 0:0:24.894,-00016.60,-00087.89, 01000.98,-00000.27, 00000.35, 00001.03,-00006.75,-00003.75, 00014.70, 00032.10
1970-1-1 0:0:24.961,-00012.70,-00083.01, 00997.07, 00000.41,-00002.34,-00000.13,-00006.30,-00003.00, 00015.45, 00032.29
1970-1-1 0:0:25.028,-00020.02,-00095.21, 01006.35,-00003.33, 00000.56,-00000.40,-00006.75,-00002.10, 00013.80, 00032.20
1970-1-1 0:0:25.073,-00001.95,-00090.82, 01001.95, 00001.02,-00000.49, 00000.27,-00004.95,-00003.60, 00014.40, 00032.29
1970-1-1 0:0:25.118,-00005.37,-00082.52, 01004.39, 00000.20,-00002.65, 00001.54,-00005.70,-00004.35, 00014.85, 00032.29
1970-1-1 0:0:25.163,-00004.39,-00093.75, 00986.33,-00002.13,-00000.24, 00001.92,-00006.00,-00004.95, 00014.25, 00031.91
1970-1-1 0:0:25.208,-00017.58,-00085.45, 01006.35,-00003.95, 00002.31,-00002.07,-00005.40,-00004.35, 00013.35, 00032.10
1970-1-1 0:0:25.253,-00024.41,-00097.17, 01013.18,-00000.00,-00001.98, 00000.40,-00007.05,-00003.30, 00013.80, 00032.25
1970-1-1 0:0:25.298,-00011.72,-00076.17, 01000.49, 00000.06, 00002.14, 00001.27,-00005.40,-00003.60, 00014.10, 00032.10
1970-1-1 0:0:25.343,-00006.35,-00085.94, 00997.56,-00002.66, 00000.95,-00002.22,-00006.30,-00003.00, 00014.70, 00032.10
1970-1-1 0:0:25.388,-00006.35,-00077.64, 01002.93, 00001.42,-00001.29, 00001.73,-00005.70,-00003.15, 00015.15, 00032.39
1970-1-1 0:0:25.433,-00012.70,-00081.05, 01005.86,-00001.46, 00000.14, 00003.69,-00005.25,-00004.20, 00014.25, 00032.20
1970-1-1 0:0:25.478,-00002.93,-00088.87, 01003.91,-00001.13,-00001.02,-00001.50,-00006.60,-00004.35, 00013.65, 00031.91
1970-1-1 0:0:25.523,-00008.79,-00102.54, 01002.44,-00002.58, 00001.02, 00000.55,-00006.15,-00003.90, 00014.85, 00032.06
1970-1-1 0:0:25.568,-00000.49,-00086.91, 01008.79,-00001.89,-00002.21, 00001.89,-00005.55,-00003.75, 00015.45, 00032.20
1970-1-1 0:0:25.613,-00004.39,-00102.54, 00976.56, 00002.48, 00000.37, 00001.68,-00006.00,-00004.50, 00014.25, 00032.10
1970-1-1 0:0:25.658,-00007.32,-00090.82, 01006.84,-00005.11, 00000.65,-00003.29,-00006.15,-00003.90, 00013.35, 00032.01
1970-1-1 0:0:25.703,-00010.25,-00078.12, 01010.74,-00002.16,-00000.76,-00001.37,-00006.90,-00003.90, 00014.85, 00032.39
1970-1-1 0:0:25.748,-00022.95,-00086.91, 00990.23,-00001.90,-00003.85, 00001.73,-00006.30,-00003.30, 00014.70, 00032.29
1970-1-1 0:0:25.793,-00015.62,-00092.77, 00997.56,-00000.33,-00000.98, 00000.41,-00005.40,-00003.15, 00014.10, 00032.01
1970-1-1 0:0:25.838,-00006.35,-00083.01, 01015.62,-00002.66,-00000.88, 00000.46,-00006.30,-00004.20, 00015.45, 00032.25
1970-1-1 0:0:25.883, 00005.86,-00092.77, 00994.63,-00002.05, 00000.34, 00000.36,-00006.00,-00002.55, 00014.70, 00032.29
1970-1-1 0:0:25.928,-00007.32,-00096.19, 01002.93, 00000.50, 00000.00, 00002.02,-00006.15,-00002.40, 00014.10, 00032.20
1970-1-1 0:0:25.973,-00005.86,-00096.19, 01006.84,-00002.60, 00002.63,-00000.08,-00005.55,-00003.00, 00015.00, 00032.01
1970-1-1 0:0:26.018,-00006.35,-00083.50, 01005.37, 00000.16,-00002.57, 00003.10,-00006.90,-00004.35, 00014.40, 00032.10
1970-1-1 0:0:26.063,-00022.95,-00092.29, 00991.70, 00000.37,-00001.75, 00001.18,-00005.70,-00004.35, 00014.10, 00032.06
1970-1-1 0:0:26.130,-00020.02,-00083.50, 01002.93,-00002.14, 00004.21,-00001.64,-00004.35,-00004.50, 00015.00, 00032.06
1970-1-1 0:0:26.197,-00003.42,-00086.91, 01000.98,-00001.77, 00000.52,-00002.17,-00007.05,-00003.30, 00014.70, 00032.29
1970-1-1 0:0:26.264, 00005.86,-00089.36, 01001.46,-00001.59,-00001.53, 00001.41,-00006.75,-00003.75, 00015.00, 00032.10
1970-1-1 0:0:26.331,-00005.37,-00081.54, 00999.02, 00001.42,-00001.61, 00002.85,-00006.15,-00003.15, 00014.85, 00032.39
1970-1-1 0:0:26.398,-00015.62,-00094.73, 00993.16,-00003.25, 00000.03, 00000.31,-00007.05,-00004.20, 00015.45, 00032.25
1970-1-1 0:0:26.465,-00001.46,-00080.57, 01003.91,-00002.06,-00000.82, 00000.10,-00007.05,-00003.30, 00014.70, 00031.91
1970-1-1 0:0:26.532,-00012.70,-00089.36, 01003.91,-00000.34,-00002.22, 00002.23,-00005.70,-00004.35, 00015.15, 00032.39
1970-1-1 0:0:26.577,-00021.48,-00079.59, 01013.18,-00001.74, 00000.04, 00000.07,-00006.30,-00004.50, 00014.25, 00032.25
1970-1-1 0:0:26.622,-00004.39,-00097.17, 00994.14,-00001.37, 00000.59, 00000.98,-00005.55,-00004.20, 00013.80, 00031.91
1970-1-1 0:0:26.667,-00009.77,-00075.20, 01005.86,-00000.33,-00002.77, 00001.47,-00006.90,-00003.15, 00015.15, 00032.39
1970-1-1 0:0:26.712,-00013.18,-00072.27, 00998.54, 00000.61,-00001.92, 00002.60,-00004.65,-00002.70, 00014.40, 00032.20
1970-1-1 0:0:26.757,-00005.86,-00084.96, 01007.81,-00001.61,-00001.28,-00001.49,-00006.15,-00003.90, 00015.60, 00032.39
1970-1-1 0:0:26.802,-00012.21,-00095.70, 00991.70,-00002.89,-00001.49, 00001.55,-00005.55,-00003.00, 00015.45, 00032.10
1970-1-1 0:0:26.847,-00020.02,-00088.38, 01000.98,-00001.02, 00000.00, 00001.53,-00005.70,-00003.60, 00015.15, 00032.10
1970-1-1 0:0:26.892,-00008.30,-00094.24, 01007.32, 00001.53, 00001.03, 00001.10,-00004.80,-00003.30, 00014.25, 00032.25
1970-1-1 0:0:26.937,-00008.30,-00084.96, 00998.54,-00001.56, 00001.10,-00001.57,-00004.95,-00003.90, 00015.15, 00031.91
1970-1-1 0:0:26.982,-00003.91,-00091.80, 00998.05, 00001.11,-00002.48, 00002.47,-00005.70,-00003.90, 00015.60, 00032.06
1970-1-1 0:0:27.027,-00010.74,-00088.38, 01005.86, 00000.04, 00001.33, 00002.08,-00006.30,-00003.75, 00014.25, 00032.25
1970-1-1 0:0:27.072,-00009.77,-00090.82, 01001.95,-00005.08,-00002.28, 00000.14,-00007.50,-00003.75, 00013.80, 00032.10
1970-1-1 0:0:27.117,-00021.48,-00096.19, 00996.58,-00002.45, 00001.45,-00000.44,-00006.60,-00003.90, 00015.60, 00032.10
1970-1-1 0:0:27.162,-00012.21,-00087.89, 00993.16,-00000.18,-00000.89, 00001.21,-00006.15,-00003.15, 00014.85, 00032.20
1970-1-1 0:0:27.207,-00020.02,-00097.66, 01003.42, 00000.19,-00001.88, 00000.34,-00007.95,-00004.50, 00015.45, 00032.25
1970-1-1 0:0:27.252,-00011.23,-00088.38, 01000.49,-00001.69,-00000.83, 00000.79,-00006.30,-00004.20, 00013.80, 00031.86
1970-1-1 0:0:27.297,-00010.25,-00091.80, 00997.07,-00002.11, 00003.99, 00000.42,-00006.60,-00004.35, 00014.40, 00032.25
1970-1-1 0:0:27.342,-00008.79,-00090.82, 01003.91, 00000.51, 00000.73, 00001.25,-00005.55,-00002.55, 00015.45, 00032.06
1970-1-1 0:0:27.387,-00025.88,-00096.19, 00999.51,-00003.47,-00000.12,-00001.63,-00006.30,-00003.75, 00012.75, 00032.29
1970-1-1 0:0:27.432,-00012.21,-00093.26, 00995.12,-00002.92, 00002.60,-00000.55,-00007.50,-00004.20, 00015.00, 00032.25
1970-1-1 0:0:27.477,-00000.49,-00083.50, 00996.58, 00000.47,-00002.65, 00002.24,-00008.10,-00003.60, 00014.85, 00032.06
1970-1-1 0:0:27.522,-00004.88,-00081.05, 00994.14, 00001.11,-00000.38, 00000.63,-00006.00,-00003.00, 00015.45, 00032.10
1970-1-1 0:0:27.589,-00010.74,-00095.21, 01012.21,-00001.36,-00002.11, 00002.83,-00006.00,-00003.00, 00013.80, 00032.29
1970-1-1 0:0:27.656,-00007.32,-00097.66, 01011.23,-00000.82,-00001.64, 00000.64,-00007.95,-00004.50, 00015.45, 00032.20
1970-1-1 0:0:27.723,-00013.18,-00064.94, 01001.46,-00000.61, 00001.40, 00001.34,-00006.30,-00004.20, 00015.00, 00032.01
1970-1-1 0:0:27.790,-00006.35,-00105.47, 00999.02, 00000.26,-00002.31,-00002.11,-00007.05,-00003.30, 00014.70, 00032.10
1970-1-1 0:0:27.857,-00024.90,-00061.52, 00997.07,-00001.11,-00000.83,-00001.33,-00006.60,-00004.80, 00014.10, 00032.25
1970-1-1 0:0:27.924, 00005.86,-00077.15, 01003.91,-00002.82, 00000.53, 00002.50,-00006.15,-00003.60, 00014.85, 00032.10
1970-1-1 0:0:27.991,-00004.39,-00073.73, 01003.91,-00001.22,-00002.31,-00000.31,-00006.60,-00004.80, 00014.40, 00032.10
1970-1-1 0:0:28.036,-00025.88,-00087.89, 01021.97,-00002.23,-00000.34, 00000.67,-00007.35,-00004.35, 00014.40, 00032.10
1970-1-1 0:0:28.081,-00014.65,-00092.77, 00996.09,-00000.56, 00000.32, 00001.11,-00006.90,-00004.35, 00014.85, 00032.39
1970-1-1 0:0:28.126,-00002.44,-00074.22, 01015.14,-00000.87,-00003.02, 00001.24,-00006.75,-00004.95, 00014.25, 00032.29
1970-1-1 0:0:28.171,-00014.16,-00102.54, 00999.02, 00000.09,-00002.09, 00005.29,-00006.15,-00003.60, 00014.10, 00032.01
1970-1-1 0:0:28.216,-00014.65,-00068.85, 01002.93,-00002.69,-00000.39,-00000.78,-00006.60,-00002.40, 00015.90, 00032.25
1970-1-1 0:0:28.261,-00018.07,-00068.36, 00998.54,-00000.82,-00000.09,-00000.82,-00006.30,-00003.75, 00014.70, 00032.29
1970-1-1 0:0:28.306, 00000.98,-00104.98, 00990.72, 00000.59,-00002.43, 00001.35,-00007.35,-00002.70, 00015.60, 00032.10
1970-1-1 0:0:28.351,-00012.70,-00070.80, 01002.93,-00002.46, 00001.66,-00000.44,-00005.40,-00003.60, 00014.40, 00032.20
1970-1-1 0:0:28.396,-00004.39,-00080.57, 01007.32,-00000.66, 00003.47,-00001.77,-00007.50,-00004.20, 00013.80, 00031.91
1970-1-1 0:0:28.441,-00012.70,-00097.17, 01001.46, 00000.76, 00001.69, 00000.50,-00006.30,-00003.00, 00014.70, 00032.25
1970-1-1 0:0:28.486,-00009.28,-00088.38, 00996.58,-00001.22,-00000.95,-00001.02,-00007.05,-00003.75, 00014.25, 00032.01
1970-1-1 0:0:28.531, 00001.95,-00094.24, 00997.07,-00001.99, 00002.45, 00001.01,-00005.40,-00003.15, 00014.85, 00032.10
1970-1-1 0:0:28.576,-00002.93,-00115.23, 01000.49,-00004.20, 00003.22,-00001.26,-00006.90,-00002.40, 00015.15, 00031.91
1970-1-1 0:0:28.621,-00004.88,-00086.91, 01003.42,-00002.84, 00000.57, 00002.37,-00006.75,-00004.20, 00015.45, 00032.25
1970-1-1 0:0:28.666,-00002.93,-00083.98, 00999.51,-00002.18, 00001.54,-00000.72,-00005.55,-00003.75, 00013.05, 00032.20
1970-1-1 0:0:28.711,-00004.39,-00093.26, 01002.44,-00002.61,-00000.21,-00000.47,-00005.55,-00004.50, 00015.00, 00031.91
1970-1-1 0:0:28.756,-00008.79,-00083.01, 00988.77,-00001.42,-00000.23, 00000.85,-00006.15,-00005.10, 00014.40, 00032.39
1970-1-1 0:0:28.801, 00006.35,-00083.01, 00987.30,-00000.18,-00001.39, 00000.06,-00006.90,-00003.90, 00014.85, 00032.10
1970-1-1 0:0:28.846,-00022.46,-00086.91, 00998.05, 00000.08,-00000.69, 00001.39,-00006.15,-00003.90, 00015.15, 00032.06
1970-1-1 0:0:28.891,-00003.91,-00102.54, 00997.56,-00001.22,-00001.21, 00000.42,-00007.35,-00004.35, 00014.40, 00032.01
1970-1-1 0:0:28.936,-00010.25,-00083.01, 00993.65, 00000.05, 00000.69, 00001.68,-00007.35,-00003.90, 00014.40, 00032.10
1970-1-1 0:0:28.981,-00019.53,-00083.98, 01010.74,-00000.31,-00001.84, 00001.01,-00008.25,-00004.95, 00013.80, 00032.25
1970-1-1 0:0:29.026,-00010.25,-00095.70, 01004.88,-00003.92, 00002.08, 00001.15,-00007.65,-00002.40, 00014.10, 00032.01
1970-1-1 0:0:29.093,-00011.23,-00102.54, 01004.88, 00000.12,-00002.44, 00000.04,-00006.75,-00003.00, 00015.45, 00032.39
1970-1-1 0:0:29.160,-00014.65,-00080.57, 01004.88, 00000.43,-00000.74, 00005.21,-00006.60,-00002.70, 00014.10, 00032.01
1970-1-1 0:0:29.227,-00011.23,-00100.10, 00993.16, 00001.00, 00001.37, 00000.15,-00005.55,-00004.50, 00013.05, 00032.25
1970-1-1 0:0:29.294,-00015.62,-00087.40, 01007.81,-00002.03, 00000.76, 00000.59,-00007.50,-00003.00, 00015.45, 00032.10
1970-1-1 0:0:29.361,-00013.18,-00089.84, 00991.70, 00000.33,-00001.23, 00000.78,-00004.80,-00003.75, 00015.75, 00032.39
1970-1-1 0:0:29.428,-00004.88,-00083.98, 00995.61,-00002.94, 00002.44,-00002.41,-00006.30,-00004.20, 00015.00, 00031.77
1970-1-1 0:0:29.495,-00008.79,-00098.14, 01005.86,-00002.00, 00002.50, 00000.79,-00006.00,-00003.00, 00014.70, 00032.25
1970-1-1 0:0:29.540,-00013.18,-00084.96, 01000.98,-00002.93,-00000.29,-00000.48,-00006.15,-00003.60, 00014.40, 00032.25
1970-1-1 0:0:29.585,-00016.60,-00090.82, 01008.79, 00000.61,-00001.70, 00002.31,-00006.60,-00002.70, 00014.40, 00032.25
1970-1-1 0:0:29.630,-00007.81,-00082.52, 01001.46,-00002.32, 00000.66,-00000.46,-00005.70,-00003.15, 00014.85, 00032.20
1970-1-1 0:0:29.675,-00013.18,-00069.34, 01000.98,-00003.51, 00000.37,-00001.98,-00006.15,-00002.40, 00014.40, 00032.20
1970-1-1 0:0:29.720,-00011.72,-00083.50, 00990.72,-00000.08,-00000.37, 00001.87,-00006.90,-00003.60, 00014.10, 00031.91
1970-1-1 0:0:29.765,-00005.37,-00083.98, 00999.51,-00001.12, 00000.87, 00004.92,-00007.50,-00004.20, 00014.70, 00032.29
1970-1-1 0:0:29.810,-00014.16,-00084.47, 01004.88,-00001.89, 00001.47, 00002.19,-00005.40,-00003.60, 00014.85, 00032.25
1970-1-1 0:0:29.855, 00004.88,-00093.26, 01005.37, 00000.00,-00000.41,-00001.26,-00006.60,-00004.35, 00015.60, 00032.25
1970-1-1 0:0:29.900,-00009.77,-00076.66, 00996.09,-00000.03, 00000.67,-00000.30,-00004.65,-00003.60, 00015.15, 00032.10
1970-1-1 0:0:29.945,-00008.30,-00079.59, 01005.37,-00002.02, 00003.21,-00000.56,-00006.00,-00004.20, 00013.50, 00032.25
1970-1-1 0:0:29.990,-00010.74,-00081.54, 00996.09,-00003.07, 00000.89, 00000.66,-00006.15,-00005.10, 00014.40, 00032.39
1970-1-1 0:0:30.035,-00010.25,-00089.36, 00997.56, 00001.19,-00004.21, 00000.82,-00005.40,-00003.15, 00015.15, 00032.10
1970-1-1 0:0:30.080,-00017.58,-00090.82, 01002.44,-00000.73,-00001.50,-00000.50,-00006.00,-00003.30, 00016.50, 00032.25
1970-1-1 0:0:30.125, 00001.46,-00091.31, 01012.70,-00002.26, 00004.07,-00001.96,-00006.15,-00003.60, 00015.15, 00032.10
1970-1-1 0:0:30.170,-00006.35,-00082.03, 00994.63,-00002.31, 00001.03, 00000.49,-00005.40,-00002.70, 00014.85, 00032.39
1970-1-1 0:0:30.215,-00005.86,-00088.87, 00999.02,-00000.37,-00003.29, 00000.78,-00006.00,-00004.50, 00014.25, 00032.25
1970-1-1 0:0:30.260,-00015.62,-00097.66, 01001.95, 00000.03,-00001.15, 00000.41,-00006.00,-00003.00, 00014.25, 00032.44
1970-1-1 0:0:30.305, 00011.72,-00098.14, 01004.39,-00004.06, 00002.65,-00000.74,-00006.15,-00004.35, 00015.60, 00032.25
1970-1-1 0:0:30.350,-00008.79,-00086.43, 01008.79, 00001.16,-00000.72, 00002.70,-00007.05,-00003.00, 00015.00, 00032.25
1970-1-1 0:0:30.395,-00017.58,-00086.91, 00998.05, 00000.34, 00000.51, 00000.24,-00006.00,-00003.75, 00014.70, 00032.29
1970-1-1 0:0:30.440,-00018.55,-00091.80, 00997.56,-00003.02, 00002.68,-00000.02,-00005.55,-00004.20, 00015.00, 00032.25
1970-1-1 0:0:30.485, 00004.39,-00075.68, 01018.55,-00003.97, 00002.02,-00002.96,-00007.35,-00003.90, 00015.15, 00032.20
1970-1-1 0:0:30.552,-00013.18,-00087.89, 00992.68,-00002.92,-00000.51,-00001.03,-00006.00,-00002.10, 00014.25, 00032.39
1970-1-1 0:0:30.619,-00022.95,-00083.50, 01014.16,-00000.40, 00002.72, 00001.52,-00006.75,-00003.75, 00013.50, 00032.25
1970-1-1 0:0:30.686,-00011.72,-00089.36, 01010.25,-00002.92, 00000.77, 00000.82,-00006.15,-00003.15, 00014.85, 00032.10
1970-1-1 0:0:30.753,-00015.14,-00089.84, 01004.88,-00000.66, 00000.53, 00000.02,-00006.30,-00003.00, 00015.45, 00032.10
1970-1-1 0:0:30.820,-00012.70,-00093.75, 01002.44,-00000.44,-00003.82, 00001.58,-00007.05,-00003.75, 00016.20, 00032.39
1970-1-1 0:0:30.887,-00011.72,-00090.82, 01008.30,-00000.07,-00001.80, 00000.98,-00005.70,-00003.60, 00015.60, 00031.91
1970-1-1 0:0:30.954,-00002.44,-00068.36, 00994.63,-00000.26, 00001.65, 00001.43,-00006.00,-00004.50, 00013.80, 00032.06
1970-1-1 0:0:30.999,-00014.65,-00088.38, 01007.81, 00001.62,-00000.89, 00001.73,-00006.90,-00003.60, 00014.40, 00032.25
1970-1-1 0:0:31.044,-00004.39,-00086.43, 00992.19,-00001.89,-00003.25, 00002.43,-00007.35,-00003.15, 00014.40, 00032.01
1970-1-1 0:0:31.089,-00007.81,-00090.33, 01012.70,-00002.61, 00002.50,-00001.15,-00006.60,-00001.50, 00015.15, 00032.20
1970-1-1 0:0:31.134,-00001.95,-00094.24, 01029.30, 00001.44, 00004.66, 00003.67,-00006.75,-00003.00, 00014.25, 00032.25
1970-1-1 0:0:31.179,-00014.16,-00087.89, 01000.49, 00000.65,-00001.30,-00001.50,-00006.00,-00002.55, 00015.45, 00032.10
1970-1-1 0:0:31.224,-00019.04,-00118.16, 00987.79,-00001.74,-00005.02, 00001.10,-00006.90,-00003.15, 00014.10, 00032.10
1970-1-1 0:0:31.269,-00013.67,-00098.63, 00989.26,-00001.11, 00002.02,-00002.42,-00006.30,-00003.75, 00015.00, 00032.25
1970-1-1 0:0:31.314,-00004.39,-00084.96, 00992.68, 00003.29, 00000.33, 00001.00,-00005.70,-00003.60, 00014.40, 00032.10
1970-1-1 0:0:31.359,-00066.89,-00094.24, 01073.24, 00003.60, 00001.70, 00002.05,-00006.00,-00004.95, 00013.80, 00032.25
1970-1-1 0:0:31.404,-00026.37,-00062.01, 01021.97,-00000.21,-00000.27,-00000.11,-00008.25,-00003.00, 00014.70, 00032.06
1970-1-1 0:0:31.449, 00016.60,-00079.59, 01004.88,-00000.65,-00000.56, 00001.21,-00007.05,-00003.30, 00014.70, 00032.25
1970-1-1 0:0:31.494,-00014.16,-00084.96, 01005.86,-00003.02,-00002.11, 00001.35,-00006.30,-00001.35, 00015.45, 00032.10
1970-1-1 0:0:31.539, 00012.70,-00050.78, 01067.38,-00003.77,-00000.30,-00000.98,-00006.75,-00002.55, 00014.70, 00032.39
1970-1-1 0:0:31.584,-00033.20,-00096.19, 00937.01, 00000.99, 00000.47, 00001.77,-00006.60,-00003.15, 00014.10, 00032.25
1970-1-1 0:0:31.629,-00021.97,-00131.84, 00965.82, 00000.46, 00000.00, 00002.17,-00006.90,-00003.60, 00015.90, 00032.10
1970-1-1 0:0:31.674,-00015.62,-00108.89, 01010.74,-00003.81,-00000.85, 00003.64,-00007.35,-00004.35, 00014.40, 00032.20
1970-1-1 0:0:31.719,-00014.65,-00058.11, 00981.45,-00003.86,-00000.52, 00000.48,-00005.40,-00002.40, 00015.60, 00032.25
1970-1-1 0:0:31.764,-00013.67,-00083.01, 01063.48,-00006.90,-00000.27,-00002.53,-00005.70,-00003.15, 00014.10, 00032.25
1970-1-1 0:0:31.809,-00005.37,-00103.52, 01003.91,-00002.44,-00001.21, 00001.71,-00006.00,-00003.00, 00014.70, 00031.91
1970-1-1 0:0:31.854,-00020.51,-00077.64, 00983.89,-00000.57,-00004.54,-00000.24,-00005.25,-00003.30, 00015.75, 00032.06
1970-1-1 0:0:31.899,-00021.48,-00073.24, 01004.39,-00003.10, 00003.66, 00000.69,-00006.30,-00003.00, 00013.80, 00032.10
1970-1-1 0:0:31.944,-00012.70,-00083.01, 00977.05,-00003.00, 00001.24,-00000.66,-00005.40,-00003.90, 00014.85, 00032.25
1970-1-1 0:0:31.989,-00005.86,-00046.39, 00990.23, 00001.45, 00002.28, 00000.55,-00005.40,-00002.70, 00015.60, 00032.25
1970-1-1 0:0:32.056,-00001.95,-00078.12, 00981.93,-00003.80, 00001.28,-00002.19,-00007.35,-00003.90, 00014.40, 00032.29
1970-1-1 0:0:32.123, 00006.35,-00158.20, 00955.08, 00001.22,-00000.24,-00000.45,-00005.40,-00003.90, 00015.90, 00032.10
1970-1-1 0:0:32.190,-00012.21,-00088.87, 01010.74, 00000.56,-00000.47, 00001.89,-00005.40,-00003.15, 00014.85, 00032.06
1970-1-1 0:0:32.257,-00008.79,-00121.09, 01017.09,-00000.15,-00002.02,-00001.16,-00005.55,-00004.50, 00015.00, 00032.39
1970-1-1 0:0:32.324, 00011.23,-00055.66, 01011.72,-00003.72, 00002.03,-00001.93,-00006.90,-00003.60, 00014.85, 00032.10
1970-1-1 0:0:32.391, 00002.93,-00104.00, 00995.12, 00000.43,-00002.36, 00000.78,-00005.25,-00004.50, 00013.80, 00032.39
1970-1-1 0:0:32.458,-00008.30,-00046.88, 01015.62,-00000.24,-00001.92, 00001.05,-00004.80,-00004.20, 00014.25, 00032.29
1970-1-1 0:0:32.503,-00008.79,-00087.89, 01032.23,-00000.05,-00000.66, 00000.73,-00007.65,-00003.15, 00014.10, 00031.86
1970-1-1 0:0:32.548, 00000.98,-00110.84, 00965.82,-00003.79, 00000.15,-00000.40,-00006.60,-00003.90, 00014.40, 00032.29
1970-1-1 0:0:32.593,-00003.42,-00089.36, 00994.14,-00001.40,-00001.21,-00000.20,-00007.35,-00003.15, 00015.15, 00032.20
1970-1-1 0:0:32.638,-00006.35,-00106.93, 00999.51,-00000.83,-00001.67, 00003.12,-00006.90,-00002.70, 00014.85, 00032.01
1970-1-1 0:0:32.683,-00024.41,-00082.52, 01043.46,-00001.53, 00003.10,-00000.83,-00004.80,-00004.20, 00013.80, 00032.29
1970-1-1 0:0:32.728, 00034.67,-00148.44, 00958.98,-00000.28, 00000.73, 00000.27,-00005.70,-00003.15, 00014.40, 00032.20
1970-1-1 0:0:32.773,-00023.93,-00081.54, 00986.82,-00000.50,-00001.95, 00003.05,-00006.75,-00004.50, 00013.50, 00032.25
1970-1-1 0:0:32.818, 00002.93,-00087.40, 00984.38, 00001.09, 00000.08, 00002.05,-00006.00,-00003.75, 00013.05, 00032.10
1970-1-1 0:0:32.863,-00008.79,-00064.45, 00996.09,-00002.89, 00000.68,-00001.99,-00008.10,-00003.60, 00014.85, 00032.29
1970-1-1 0:0:32.908,-00026.37,-00075.20, 01022.95,-00003.02, 00000.05, 00000.33,-00006.15,-00003.60, 00014.40, 00032.29
1970-1-1 0:0:32.953,-00018.55,-00059.08, 01025.39, 00001.16,-00000.28, 00000.47,-00006.15,-00003.60, 00015.60, 00032.10
1970-1-1 0:0:32.998,-00017.58,-00045.90, 01020.02,-00005.05, 00000.63, 00000.85,-00006.15,-00002.70, 00014.85, 00032.20
1970-1-1 0:0:33.043,-00011.72,-00077.15, 00988.77, 00001.59, 00001.13, 00001.21,-00006.75,-00004.20, 00014.25, 00032.25
1970-1-1 0:0:33.088, 00015.14,-00138.67, 00947.75, 00000.90,-00001.92, 00001.22,-00006.75,-00003.00, 00015.00, 00032.10
1970-1-1 0:0:33.133, 00006.84,-00069.82, 01001.95, 00002.07,-00000.05,-00000.13,-00005.55,-00003.75, 00013.50, 00032.01
1970-1-1 0:0:33.178,-00021.48,-00082.52, 00992.19,-00004.69,-00001.44,-00002.76,-00007.05,-00003.30, 00014.70, 00032.20
1970-1-1 0:0:33.223,-00030.76,-00074.22, 01086.91,-00001.86, 00001.16, 00001.80,-00007.95,-00003.75, 00014.25, 00032.29
1970-1-1 0:0:33.268,-00016.11,-00098.14, 00987.79,-00001.41,-00000.22, 00003.61,-00006.90,-00003.15, 00014.10, 00032.06
1970-1-1 0:0:33.313,-00010.74,-00113.28, 01018.07, 00000.25, 00000.02, 00000.55,-00006.60,-00004.35, 00014.10, 00032.10
1970-1-1 0:0:33.358,-00003.42,-00107.91, 00993.16,-00001.80,-00001.98, 00001.11,-00004.95,-00002.40, 00015.15, 00032.25
1970-1-1 0:0:33.403,-00023.93,-00086.91, 01006.84,-00001.58,-00001.89,-00000.63,-00007.65,-00003.15, 00014.40, 00032.25
1970-1-1 0:0:33.448,-00008.30,-00087.89, 01009.77, 00000.62,-00002.53, 00004.03,-00008.10,-00003.90, 00013.35, 00032.25
1970-1-1 0:0:33.515, 00002.44,-00087.40, 00990.23, 00000.94, 00000.93, 00000.31,-00006.60,-00004.35, 00013.65, 00032.39
1970-1-1 0:0:33.582,-00007.32,-00087.89, 00986.33,-00005.38,-00003.43, 00001.58,-00006.15,-00005.10, 00014.40, 00032.39
1970-1-1 0:0:33.649,-00007.81,-00092.29, 00998.54, 00001.79,-00001.19, 00003.16,-00006.75,-00002.55, 00015.00, 00032.06
1970-1-1 0:0:33.716,-00012.21,-00062.99, 00978.52, 00002.99,-00001.82, 00004.92,-00005.70,-00002.40, 00014.10, 00032.10
1970-1-1 0:0:33.783,-00013.67,-00052.73, 01014.16,-00001.34, 00002.04, 00000.76,-00006.30,-00004.20, 00015.00, 00032.29
1970-1-1 0:0:33.850,-00002.93,-00105.96, 01003.42,-00000.09,-00000.47, 00004.69,-00006.00,-00003.30, 00015.00, 00032.25
1970-1-1 0:0:33.917,-00018.07,-00074.71, 00994.14, 00001.75,-00002.83, 00002.78,-00006.60,-00002.70, 00014.85, 00032.39
1970-1-1 0:0:33.962,-00002.44,-00077.15, 01010.25,-00002.31, 00000.89,-00002.92,-00006.60,-00004.35, 00014.40, 00031.91
1970-1-1 0:0:34.07,-00019.04,-00091.31, 01004.88,-00003.21, 00001.52, 00003.81,-00004.95,-00000.75, 00014.40, 00032.39
1970-1-1 0:0:34.052, 00011.72,-00097.66, 01010.25,-00001.08,-00003.70, 00004.71,-00004.65,-00004.35, 00014.40, 00032.25
1970-1-1 0:0:34.097,-00004.39,-00072.75, 01006.35, 00001.03,-00002.66, 00000.98,-00005.70,-00003.90, 00014.40, 00032.10
1970-1-1 0:0:34.142,-00010.74,-00089.36, 00996.58,-00002.46, 00000.05, 00002.95,-00005.40,-00003.90, 00013.65, 00032.44
1970-1-1 0:0:34.187,-00006.84,-00078.61, 01007.32,-00003.23,-00000.59,-00001.39,-00005.25,-00003.00, 00015.00, 00032.20
1970-1-1 0:0:34.232,-00020.51,-00087.40, 01000.00, 00000.66,-00001.84, 00003.34,-00005.25,-00003.00, 00015.75, 00032.20
1970-1-1 0:0:34.277,-00005.37,-00090.82, 01003.91,-00002.33,-00001.60, 00000.51,-00006.00,-00004.20, 00014.25, 00032.25
1970-1-1 0:0:34.322,-00021.00,-00072.27, 00986.33,-00001.38, 00001.89, 00000.91,-00006.30,-00003.00, 00015.45, 00032.06
1970-1-1 0:0:34.367,-00008.79,-00066.41, 00993.16,-00000.94,-00001.70,-00000.05,-00005.40,-00002.70, 00014.40, 00032.25
1970-1-1 0:0:34.412,-00000.49,-00079.59, 00988.77, 00001.22, 00001.72, 00001.49,-00006.90,-00003.60, 00014.85, 00032.29
1970-1-1 0:0:34.457,-00013.18,-00096.19, 01003.91,-00001.71, 00002.95, 00000.33,-00006.60,-00003.15, 00015.15, 00032.10
1970-1-1 0:0:34.502,-00011.23,-00080.08, 01009.77,-00001.57,-00000.82,-00002.62,-00006.15,-00001.95, 00014.85, 00032.25
1970-1-1 0:0:34.547,-00000.49,-00076.17, 01007.32,-00000.60,-00000.08, 00003.02,-00005.55,-00003.30, 00013.80, 00032.39
1970-1-1 0:0:34.592,-00005.37,-00092.77, 01012.21,-00000.55,-00001.66, 00002.28,-00004.80,-00003.75, 00014.25, 00031.91
1970-1-1 0:0:34.637,-00000.98,-00079.59, 01004.39,-00003.07, 00002.92,-00000.82,-00006.00,-00002.55, 00014.70, 00032.29
1970-1-1 0:0:34.682,-00018.07,-00088.38, 00993.16,-00000.21,-00002.56, 00000.34,-00005.55,-00003.00, 00015.00, 00032.10
1970-1-1 0:0:34.727,-00013.18,-00082.03, 01000.00,-00001.59,-00003.24,-00000.34,-00006.15,-00003.15, 00013.65, 00031.91
1970-1-1 0:0:34.772,-00001.46,-00078.61, 00996.58,-00002.05,-00000.34,-00001.63,-00006.30,-00003.75, 00014.70, 00032.44
1970-1-1 0:0:34.817,-00013.67,-00067.87, 00997.56,-00000.11, 00001.37, 00000.48,-00005.25,-00004.20, 00015.00, 00032.10
1970-1-1 0:0:34.862,-00005.37,-00075.20, 01004.39, 00000.89,-00001.69, 00001.73,-00006.00,-00004.95, 00015.00, 00032.39
1970-1-1 0:0:34.907,-00009.77,-00067.87, 01007.32,-00000.06, 00001.24, 00000.44,-00005.70,-00003.60, 00014.10, 00032.20
1970-1-1 0:0:34.952,-00010.25,-00082.03, 01008.79,-00000.29, 00000.23,-00000.70,-00004.35,-00004.20, 00013.80, 00032.29
1970-1-1 0:0:35.019,-00011.23,-00077.64, 00992.68,-00001.31,-00004.53, 00000.60,-00005.25,-00003.00, 00014.70, 00032.25
1970-1-1 0:0:35.086,-00016.60,-00080.08, 01000.98,-00000.26,-00002.76, 00001.69,-00003.75,-00003.90, 00016.20, 00032.20
1970-1-1 0:0:35.153,-00009.28,-00084.47, 01001.95,-00002.66, 00000.80,-00001.08,-00005.70,-00002.70, 00013.65, 00032.25
1970-1-1 0:0:35.220,-00004.88,-00084.96, 00999.02,-00001.93, 00001.10,-00000.74,-00005.40,-00002.40, 00014.85, 00032.39
1970-1-1 0:0:35.287,-00005.37,-00074.71, 01001.95,-00002.27,-00003.37, 00001.64,-00005.40,-00003.60, 00015.15, 00032.20
1970-1-1 0:0:35.354,-00011.23,-00075.68, 01001.95,-00000.59, 00000.33, 00000.31,-00006.00,-00003.00, 00015.45, 00032.39
1970-1-1 0:0:35.421,-00012.70,-00091.31, 01007.32, 00001.09, 00000.53, 00000.08,-00006.00,-00003.75, 00014.70, 00031.91
1970-1-1 0:0:35.466, 00008.30,-00076.17, 00971.68,-00002.70, 00000.27,-00001.39,-00005.40,-00001.50, 00015.60, 00032.10
1970-1-1 0:0:35.511,-00008.79,-00078.61, 01011.23,-00000.19,-00001.90, 00002.37,-00004.35,-00003.75, 00014.70, 00032.25
1970-1-1 0:0:35.556,-00000.98,-00070.31, 00996.58,-00001.11,-00001.71,-00000.20,-00006.60,-00002.40, 00012.90, 00032.39
1970-1-1 0:0:35.601,-00016.60,-00052.73, 01042.48,-00000.87, 00002.60,-00001.15,-00004.95,-00002.70, 00014.85, 00032.25
1970-1-1 0:0:35.646,-00006.84, 00062.50, 01002.44,-00001.08, 00000.34, 00013.11,-00004.95,-00002.70, 00014.85, 00032.44
1970-1-1 0:0:35.691,-00011.23,-00190.43, 00992.68,-00007.40,-00001.21, 00019.68,-00005.70,-00004.35, 00013.65, 00032.10
1970-1-1 0:0:35.736,-00003.42,-00029.79, 01163.09,-00027.60,-00021.48,-00001.77,-00004.80,-00003.30, 00015.00, 00031.91
1970-1-1 0:0:35.781, 00012.21,-00052.25, 01030.27,-00011.25,-00004.96,-00000.47,-00006.15,-00004.35, 00014.10, 00032.39
1970-1-1 0:0:35.826, 00041.50,-00078.12, 00962.40,-00019.06,-00017.23, 00012.85,-00006.15,-00004.80, 00013.35, 00032.10
1970-1-1 0:0:35.871, 00076.66,-00030.76, 00929.69, 00002.08,-00011.27, 00013.84,-00006.00,-00005.70, 00012.30, 00032.25
1970-1-1 0:0:35.916,-00150.88,-00231.93, 01076.17, 00008.68, 00011.50,-00012.39,-00008.10,-00004.80, 00013.35, 00032.29
1970-1-1 0:0:35.961, 00050.29,-00111.33, 00670.41,-00009.28, 00017.80,-00025.27,-00006.90,-00003.90, 00012.60, 00032.25
1970-1-1 0:0:36.06, 00085.45,-00197.75, 01174.32, 00020.24,-00009.05,-00013.18,-00005.70,-00004.80, 00014.10, 00032.29
1970-1-1 0:0:36.051, 00204.59,-00065.43, 01092.77, 00042.83,-00001.81,-00006.20,-00006.75,-00004.50, 00013.50, 00032.01
1970-1-1 0:0:36.096,-00041.99,-00074.22, 00872.56,-00013.98, 00003.14, 00003.08,-00007.95,-00001.35, 00014.25, 00032.39
1970-1-1 0:0:36.141, 00027.34,-00084.96, 00924.80, 00003.15,-00006.16, 00003.15,-00007.35,-00003.90, 00014.10, 00032.25
1970-1-1 0:0:36.186, 00003.42,-00120.61, 01126.46,-00009.37,-00008.80,-00001.55,-00007.05,-00003.75, 00014.25, 00032.29
1970-1-1 0:0:36.231, 00079.59,-00236.33, 01217.77,-00064.16, 00018.06,-00006.81,-00006.90,-00005.55, 00013.35, 00032.39
1970-1-1 0:0:36.276, 00036.13,-00205.08, 00912.11,-00004.98, 00044.95, 00006.94,-00006.00,-00006.15, 00012.75, 00032.10
1970-1-1 0:0:36.321, 00007.32,-00200.68, 00907.23, 00034.05, 00074.25, 00000.85,-00003.60,-00006.60, 00011.55, 00032.10
1970-1-1 0:0:36.366,-00075.68,-00190.92, 00980.96,-00010.91, 00051.73,-00012.12,-00002.85,-00006.15, 00013.80, 00032.10
1970-1-1 0:0:36.411,-00146.00,-00150.39, 00954.59, 00002.95, 00053.84,-00016.95, 00000.90,-00007.35, 00012.75, 00032.44
1970-1-1 0:0:36.478,-00259.28,-00093.26, 01081.05, 00029.66, 00010.21, 00009.86, 00001.50,-00006.00, 00013.35, 00032.53
1970-1-1 0:0:36.545,-00265.62,-00101.56, 01088.87, 00025.11,-00020.53, 00028.91, 00002.40,-00003.75, 00012.75, 00032.29
1970-1-1 0:0:36.612,-00185.55,-00086.43, 00968.75,-00000.95,-00001.76, 00028.56, 00001.50,-00004.80, 00014.85, 00032.25
1970-1-1 0:0:36.679,-00196.78,-00116.70, 01025.39, 00020.61, 00022.26, 00013.82, 00004.20,-00002.40, 00012.90, 00032.29
1970-1-1 0:0:36.746,-00136.23, 00021.48, 00967.77, 00007.95,-00003.19, 00006.65, 00005.25,-00002.10, 00013.80, 00032.25
1970-1-1 0:0:36.813,-00114.26,-00062.99, 00887.70,-00014.37, 00002.15, 00010.66, 00006.90,-00000.75, 00013.65, 00032.44
1970-1-1 0:0:36.880,-00135.74,-00054.20, 00945.80,-00019.69, 00022.10,-00012.21, 00007.05,-00003.75, 00014.25, 00032.10
1970-1-1 0:0:36.925,-00180.66,-00068.36, 00957.03, 00006.02, 00017.72,-00004.33, 00007.50,-00003.00, 00012.30, 00032.25
1970-1-1 0:0:36.970,-00235.35,-00070.80, 00949.22,-00005.77,-00009.68,-00007.71, 00007.95,-00004.20, 00012.00, 00032.39
1970-1-1 0:0:37.015,-00239.75,-00064.45, 00922.36,-00005.13,-00004.22,-00006.32, 00008.55,-00003.60, 00012.15, 00032.20
1970-1-1 0:0:37.060,-00246.58,-00082.03, 00938.48,-00002.69, 00009.03,-00004.30, 00008.55,-00004.35, 00013.35, 00032.25
1970-1-1 0:0:37.105,-00283.20,-00088.87, 00983.89,-00000.05, 00004.40,-00003.16, 00008.25,-00003.30, 00012.30, 00032.39
1970-1-1 0:0:37.150,-00238.28,-00085.45, 00951.17,-00003.89,-00001.44, 00003.82, 00008.25,-00004.50, 00011.25, 00032.20
1970-1-1 0:0:37.195,-00228.52,-00095.70, 00973.63,-00007.90,-00004.32, 00002.27, 00006.75,-00003.75, 00012.00, 00032.25
1970-1-1 0:0:37.240,-00222.17,-00082.52, 00984.86,-00001.85, 00003.37,-00000.10, 00006.75,-00003.75, 00012.00, 00032.44
1970-1-1 0:0:37.285,-00214.36,-00100.10, 00976.56,-00003.22, 00004.76,-00001.24, 00007.50,-00004.20, 00011.55, 00032.29
1970-1-1 0:0:37.330,-00213.38,-00106.45, 00981.45,-00001.66, 00004.22,-00002.45, 00007.95,-00004.20, 00011.55, 00032.10
1970-1-1 0:0:37.375,-00249.02,-00104.98, 00986.33, 00000.95, 00000.00,-00008.35, 00006.90,-00005.10, 00012.60, 00032.10
1970-1-1 0:0:37.420,-00248.54,-00068.85, 00979.98, 00007.98, 00003.15,-00001.80, 00009.00,-00004.50, 00012.30, 00032.25
1970-1-1 0:0:37.465,-00263.18,-00089.36, 00970.21,-00000.77, 00001.03, 00004.58, 00007.65,-00004.35, 00010.95, 00032.39
1970-1-1 0:0:37.510,-00241.70,-00088.38, 00967.77,-00001.44, 00004.79, 00000.37, 00007.05,-00004.95, 00011.55, 00032.06
1970-1-1 0:0:37.555,-00233.89,-00089.84, 00953.61,-00000.41,-00002.94,-00002.08, 00008.85,-00003.90, 00012.15, 00032.10
1970-1-1 0:0:37.600,-00229.49,-00097.17, 00967.77,-00003.66, 00000.85, 00004.59, 00006.90,-00004.80, 00011.40, 00032.29
1970-1-1 0:0:37.645,-00218.26,-00098.14, 00966.80,-00010.39,-00001.98, 00000.19, 00007.05,-00005.70, 00012.00, 00032.39
1970-1-1 0:0:37.690,-00245.12,-00107.91, 00991.21,-00004.93, 00003.89,-00000.95, 00007.35,-00003.15, 00011.70, 00032.39
1970-1-1 0:0:37.735,-00259.28,-00084.47, 01001.95,-00001.53, 00000.60, 00003.15, 00008.25,-00004.20, 00011.55, 00032.29
1970-1-1 0:0:37.780,-00252.44,-00102.54, 00976.56, 00000.40, 00002.24, 00000.21, 00009.30,-00004.95, 00011.25, 00032.25
1970-1-1 0:0:37.825,-00249.02,-00076.66, 00968.75, 00000.73, 00000.41, 00000.24, 00008.70,-00003.75, 00010.50, 00032.10
1970-1-1 0:0:37.870,-00245.61,-00090.82, 00963.87,-00002.35, 00007.10, 00003.22, 00008.85,-00005.10, 00011.40, 00032.10
1970-1-1 0:0:37.915,-00283.69,-00086.91, 00957.52, 00000.65, 00007.64,-00003.59, 00009.45,-00004.95, 00010.80, 00032.39
1970-1-1 0:0:37.982,-00299.80,-00055.18, 00873.54,-00000.97, 00000.33,-00001.40, 00008.10,-00004.80, 00010.20, 00032.25
1970-1-1 0:0:38.049,-00276.37, 00021.00, 00778.81, 00006.39,-00018.41, 00007.71, 00008.70,-00004.95, 00012.00, 00032.29
1970-1-1 0:0:38.116,-00200.68,-00043.95, 00804.20,-00015.61,-00035.70, 00001.66, 00008.10,-00004.80, 00011.40, 00032.20
1970-1-1 0:0:38.183,-00178.22,-00068.36, 00738.77,-00039.21,-00017.27,-00019.61, 00005.70,-00006.45, 00011.70, 00032.29
1970-1-1 0:0:38.250,-00156.25,-00268.07, 00933.59,-00058.37,-00036.07, 00000.57, 00005.25,-00009.75, 00011.25, 00032.10
1970-1-1 0:0:38.317, 00043.95,-00901.86, 01833.98, 00137.95,-00199.40,-00024.35,-00001.50,-00011.55, 00011.70, 00032.39
1970-1-1 0:0:38.384, 00125.00,-00001.95, 00285.64, 00021.49, 00087.51, 00015.11,-00006.00,-00007.05, 00014.25, 00032.25
1970-1-1 0:0:38.429,-00028.81,-00190.92, 00958.50,-00005.26, 00023.44, 00011.90,-00004.65,-00007.20, 00012.90, 00032.25
1970-1-1 0:0:38.474,-00243.16,-00153.32, 00986.33,-00008.73,-00139.14,-00007.11,-00005.25,-00007.05, 00014.70, 00032.25
1970-1-1 0:0:38.519,-00070.31,-00274.90, 01615.72,-00132.45, 00026.90, 00000.57,-00006.00,-00004.50, 00015.00, 00032.25
1970-1-1 0:0:38.564,-00047.36,-00228.03, 01122.07,-00010.73, 00011.37, 00002.34,-00005.40,-00005.55, 00013.65, 00032.25
1970-1-1 0:0:38.609, 00042.48,-00108.89, 01086.43, 00005.34, 00081.06,-00000.00,-00004.20,-00007.95, 00012.60, 00032.39
1970-1-1 0:0:38.654,-00181.15,-00109.38, 00999.02, 00023.59, 00105.81,-00007.72,-00001.65,-00006.60, 00013.50, 00032.25
1970-1-1 0:0:38.699,-00185.55,-00126.46, 01101.56, 00049.40, 00063.92, 00002.83, 00001.35,-00005.70, 00012.75, 00032.39
1970-1-1 0:0:38.744,-00257.32,-00080.08, 01149.90, 00074.20,-00013.72, 00007.51, 00003.60,-00004.20, 00013.05, 00032.39
1970-1-1 0:0:38.789,-00218.75,-00004.88, 00983.40, 00036.32,-00021.79, 00014.95, 00005.25,-00000.60, 00015.45, 00032.29
1970-1-1 0:0:38.834,-00178.71,-00012.70, 00895.51, 00009.73, 00017.47, 00014.44, 00004.65,-00000.30, 00016.35, 00032.20
1970-1-1 0:0:38.879,-00223.14,-00020.02, 00962.89, 00013.21, 00025.90, 00007.92, 00006.15, 00000.30, 00013.35, 00032.25
1970-1-1 0:0:38.924,-00258.30, 00056.64, 00957.52, 00006.57, 00000.22, 00012.90, 00007.65,-00000.75, 00014.40, 00032.29
1970-1-1 0:0:38.969,-00234.38, 00097.17, 00945.31,-00004.21,-00018.85, 00024.48, 00005.70, 00001.50, 00015.15, 00032.25
1970-1-1 0:0:39.014,-00180.66, 00001.95, 00945.80,-00003.22,-00023.37, 00017.24, 00006.75,-00000.15, 00015.00, 00032.39
1970-1-1 0:0:39.059,-00117.19, 00029.79, 00945.31,-00003.81, 00003.98, 00007.95, 00006.30, 00000.90, 00012.75, 00032.29
1970-1-1 0:0:39.104,-00167.97, 00005.86, 01054.69,-00008.83, 00022.53,-00002.47, 00007.35, 00001.20, 00014.10, 00032.39
1970-1-1 0:0:39.149,-00195.80, 00025.39, 01021.48, 00013.15, 00003.51,-00003.81, 00005.70, 00000.75, 00014.40, 00032.06
1970-1-1 0:0:39.194,-00167.97, 00061.04, 00958.50, 00008.53,-00007.34,-00002.97, 00006.60, 00001.50, 00014.85, 00032.20
1970-1-1 0:0:39.239,-00177.25, 00059.08, 00963.87,-00006.48, 00008.08,-00002.90, 00007.50, 00001.35, 00014.25, 00032.39
1970-1-1 0:0:39.284,-00209.47, 00056.64, 00963.87,-00012.37, 00002.85,-00004.64, 00007.65, 00000.75, 00013.35, 00032.10
1970-1-1 0:0:39.329,-00211.91, 00003.91, 00925.78,-00002.88, 00003.04,-00004.66, 00007.65, 00000.75, 00012.60, 00032.29
1970-1-1 0:0:39.374,-00217.77,-00035.16, 00905.27,-00001.82, 00007.64, 00004.95, 00008.85, 00000.75, 00014.10, 00032.29
1970-1-1 0:0:39.441,-00219.24,-00001.95, 00905.27,-00002.56, 00000.00, 00008.77, 00007.65, 00000.30, 00012.15, 00032.06
1970-1-1 0:0:39.508,-00235.84, 00010.74, 00949.71,-00012.82, 00001.44, 00007.35, 00008.85, 00000.75, 00012.60, 00032.25
1970-1-1 0:0:39.575,-00208.01,-00043.46, 00967.29,-00015.90,-00005.91, 00008.10, 00009.60, 00000.75, 00011.70, 00032.20
1970-1-1 0:0:39.642,-00214.36, 00019.53, 00973.63,-00001.11, 00006.31, 00001.38, 00008.55,-00000.75, 00012.90, 00032.39
1970-1-1 0:0:39.709,-00263.18,-00007.81, 00946.78,-00011.04, 00008.28,-00003.16, 00009.45,-00001.35, 00011.25, 00032.29
1970-1-1 0:0:39.776,-00282.71,-00011.72, 00946.78,-00012.02,-00005.40,-00009.79, 00010.05,-00000.75, 00013.65, 00032.29
1970-1-1 0:0:39.843,-00264.65,-00008.79, 00973.63,-00014.25,-00006.79,-00002.99, 00008.85,-00002.70, 00012.15, 00032.29
1970-1-1 0:0:39.888,-00239.26,-00034.18, 00983.40,-00017.11,-00009.82,-00000.18, 00008.85,-00002.40, 00012.15, 00032.39
1970-1-1 0:0:39.933,-00201.66,-00071.78, 01006.84,-00014.47,-00009.21,-00001.02, 00008.55,-00003.15, 00011.40, 00032.20
1970-1-1 0:0:39.978,-00207.52,-00078.12, 01041.99,-00013.02,-00008.63, 00003.19, 00008.70,-00003.00, 00011.55, 00032.01
1970-1-1 0:0:40.023,-00206.54,-00098.63, 01039.55,-00002.50,-00003.46, 00003.52, 00008.55,-00004.80, 00012.15, 00032.53
1970-1-1 0:0:40.068,-00206.05,-00109.38, 01016.60, 00003.69, 00004.56,-00002.97, 00007.35,-00003.60, 00011.40, 00032.39
1970-1-1 0:0:40.113,-00220.21,-00049.32, 01018.07, 00007.15, 00008.33, 00000.07, 00008.10,-00003.90, 00010.65, 00032.29
1970-1-1 0:0:40.158,-00211.91,-00073.73, 00991.21, 00005.44,-00001.54, 00002.47, 00008.25,-00003.30, 00010.80, 00032.25
1970-1-1 0:0:40.203,-00209.96,-00083.98, 00939.45, 00004.75, 00008.63, 00000.66, 00009.60,-00004.35, 00010.65, 00032.25
1970-1-1 0:0:40.248,-00222.17,-00051.76, 00964.84, 00004.26, 00006.11,-00001.66, 00009.30,-00002.40, 00011.70, 00032.25
1970-1-1 0:0:40.293,-00254.39,-00022.95, 00975.59, 00001.71,-00001.21,-00001.34, 00009.00,-00003.30, 00012.30, 00032.10
1970-1-1 0:0:40.338,-00263.18,-00062.50, 00971.19,-00009.36,-00002.43, 00001.48, 00007.65,-00004.35, 00011.70, 00032.29
1970-1-1 0:0:40.383,-00215.33,-00066.41, 00962.40,-00009.56, 00003.29, 00000.04, 00008.70,-00004.20, 00011.55, 00032.20
1970-1-1 0:0:40.428,-00234.38,-00098.14, 00978.03,-00006.24,-00000.36, 00006.34, 00009.30,-00004.35, 00011.70, 00032.25
1970-1-1 0:0:40.473,-00204.10,-00088.38, 00970.70, 00003.77,-00007.46, 00004.54, 00009.45,-00002.55, 00010.50, 00032.25
1970-1-1 0:0:40.518,-00214.36,-00059.57, 00935.06,-00003.40,-00002.27,-00000.07, 00009.60,-00005.10, 00012.15, 00032.25
1970-1-1 0:0:40.563,-00238.77,-00054.20, 00911.13,-00004.20, 00006.28,-00001.82, 00008.55,-00003.60, 00010.65, 00032.10
1970-1-1 0:0:40.608,-00266.60,-00015.14, 00933.11,-00001.41,-00001.65, 00000.02, 00008.70,-00003.30, 00011.25, 00032.10
1970-1-1 0:0:40.653,-00298.34,-00009.28, 00895.51,-00007.24,-00008.27,-00003.25, 00007.65,-00004.80, 00009.90, 00032.10
1970-1-1 0:0:40.698,-00315.43,-00039.06, 00926.76,-00008.21, 00006.23,-00006.51, 00008.10,-00004.35, 00010.95, 00032.25
1970-1-1 0:0:40.743,-00281.74,-00091.31, 00983.40,-00010.03, 00002.42, 00005.17, 00008.70,-00004.50, 00010.50, 00032.25
1970-1-1 0:0:40.788,-00256.35,-00056.15, 00979.00,-00002.71,-00016.90, 00004.99, 00008.55,-00006.00, 00012.60, 00032.25
1970-1-1 0:0:40.833,-00208.01,-00150.39, 00936.04, 00009.66,-00019.68, 00001.38, 00007.95,-00005.40, 00010.80, 00032.29
1970-1-1 0:0:40.878,-00171.88, 00006.35, 00952.64,-00009.27,-00009.40, 00018.75, 00007.50,-00003.00, 00011.55, 00032.39
1970-1-1 0:0:40.945,-00156.25,-00151.86, 00900.88,-00006.63,-00030.42, 00000.65, 00006.90,-00005.10, 00011.70, 00032.39
1970-1-1 0:0:41.012,-00102.05,-00023.44, 00727.54, 00018.64,-00017.06, 00005.34, 00006.00,-00004.95, 00013.05, 00032.39
1970-1-1 0:0:41.079,-00083.01,-00078.12, 00604.00,-00039.70,-00096.90,-00034.89, 00003.60,-00005.40, 00013.05, 00032.29
1970-1-1 0:0:41.146,-02000.00,-00996.09, 01999.94, 00250.13, 00061.71, 00029.49,-00008.85,-00008.40, 00012.15, 00032.25
1970-1-1 0:0:41.213, 00137.21,-00493.16, 01558.11,-00044.82, 00020.30, 00005.42,-00006.30,-00003.00, 00015.75, 00032.39
1970-1-1 0:0:41.280,-00012.70, 00004.39, 01109.38,-00015.61, 00005.97,-00001.63,-00005.55,-00003.30, 00014.25, 00032.29
1970-1-1 0:0:41.347,-00002.44,-00089.84, 00988.77, 00000.17, 00001.66, 00002.25,-00005.25,-00002.55, 00015.45, 00032.25
1970-1-1 0:0:41.392, 00009.77,-00167.48, 00994.14, 00000.99,-00000.25,-00002.86,-00004.95,-00002.70, 00015.60, 00032.25
1970-1-1 0:0:41.437, 00016.60,-00065.92, 00995.61, 00002.19,-00002.08, 00000.11,-00004.80,-00002.10, 00015.00, 00032.01
1970-1-1 0:0:41.482,-00009.28,-00085.94, 01059.57, 00000.39, 00001.89, 00001.59,-00005.55,-00002.55, 00015.45, 00032.39
1970-1-1 0:0:41.527,-00031.25,-00054.20, 01019.53,-00006.67, 00000.09,-00006.00,-00005.40,-00003.15, 00015.15, 00032.44
1970-1-1 0:0:41.572,-00011.72,-00010.25, 01110.35, 00006.70,-00003.56,-00002.35,-00005.70,-00001.50, 00015.60, 00032.20
1970-1-1 0:0:41.617,-00137.70,-00413.09, 01660.64,-00105.18, 00020.50,-00000.28,-00004.20,-00004.35, 00014.85, 00032.10
1970-1-1 0:0:41.662,-00053.71,-00130.37, 01219.73, 00024.58, 00064.92, 00001.20,-00003.60,-00006.60, 00013.80, 00032.25
1970-1-1 0:0:41.707,-00068.36,-00153.81, 00373.54,-00025.31, 00118.12, 00009.31,-00002.25,-00005.55, 00013.65, 00032.29
1970-1-1 0:0:41.752,-00227.05,-00146.00, 01279.30, 00022.18, 00061.93, 00011.77, 00003.30,-00006.15, 00012.75, 00032.25
1970-1-1 0:0:41.797,-00325.68,-00203.61, 01203.12, 00018.08,-00010.46, 00006.69, 00005.40,-00006.45, 00014.40, 00032.01
1970-1-1 0:0:41.842,-00183.59,-00096.68, 01075.68, 00054.26,-00055.25, 00017.24, 00006.00,-00004.95, 00012.30, 00032.39
1970-1-1 0:0:41.887,-00184.57,-00001.95, 01048.34, 00053.63,-00025.31, 00032.03, 00004.20,-00001.50, 00014.40, 00032.44
1970-1-1 0:0:41.932,-00112.30,-00076.17, 01028.81, 00021.24, 00020.69, 00023.37, 00002.40,-00002.10, 00015.00, 00032.10
1970-1-1 0:0:41.977,-00056.15,-00026.86, 00995.61,-00011.95, 00054.80,-00000.40, 00004.20,-00001.95, 00016.80, 00032.39
1970-1-1 0:0:42.022,-00167.48, 00043.46, 01114.75,-00016.51, 00011.53,-00005.81, 00007.50,-00000.60, 00013.50, 00032.10
1970-1-1 0:0:42.067,-00223.14,-00008.30, 01151.86,-00000.79,-00041.49,-00007.17, 00008.25,-00001.80, 00014.70, 00032.10
1970-1-1 0:0:42.112,-00135.74, 00022.95, 01040.53, 00020.07,-00034.60, 00004.29, 00005.55,-00001.80, 00014.25, 00032.44
1970-1-1 0:0:42.157,-00122.07,-00034.67, 01033.20,-00004.13, 00018.78,-00006.37, 00005.70,-00000.75, 00014.40, 00032.29
1970-1-1 0:0:42.202,-00191.41,-00001.46, 01014.16, 00005.32, 00025.92,-00006.45, 00005.55,-00001.80, 00013.05, 00032.44
1970-1-1 0:0:42.247,-00188.48,-00063.48, 00910.64,-00018.22, 00008.31,-00001.92, 00006.75,-00000.15, 00013.05, 00032.25
1970-1-1 0:0:42.292,-00180.66,-00000.98, 00913.09,-00027.02, 00006.88,-00010.65, 00008.55,-00001.50, 00012.90, 00032.39
1970-1-1 0:0:42.337,-00184.08,-00056.64, 00843.26,-00023.83, 00012.79,-00010.64, 00008.85,-00001.20, 00011.70, 00032.39
1970-1-1 0:0:42.404,-00180.66,-00069.34, 00875.00,-00007.50, 00014.10,-00006.31, 00009.00,-00003.00, 00012.00, 00032.39
1970-1-1 0:0:42.471,-00161.13,-00080.57, 00847.66,-00013.69, 00000.39,-00001.40, 00008.70,-00004.50, 00012.00, 00032.25
1970-1-1 0:0:42.538,-00207.52,-00069.34, 00942.38,-00014.79,-00002.72,-00002.60, 00008.10,-00005.10, 00010.95, 00031.91
1970-1-1 0:0:42.605,-00192.38,-00095.21, 00941.89,-00006.52,-00006.56, 00002.24, 00010.20,-00004.50, 00010.50, 00032.39
1970-1-1 0:0:42.672,-00244.14,-00115.72, 00922.36,-00004.81, 00002.30,-00000.42, 00008.10,-00005.55, 00010.65, 00032.39
1970-1-1 0:0:42.739,-00204.10,-00105.47, 00984.86, 00001.84,-00008.98,-00000.46, 00008.70,-00005.70, 00010.80, 00032.25
1970-1-1 0:0:42.806,-00207.03,-00090.82, 00917.48,-00001.27,-00000.63,-00006.12, 00008.70,-00005.70, 00011.25, 00032.25
1970-1-1 0:0:42.851,-00215.82,-00104.98, 00902.34,-00002.93,-00006.81,-00004.48, 00007.35,-00006.45, 00010.95, 00032.39
1970-1-1 0:0:42.896,-00214.36,-00112.79, 00865.72,-00012.04,-00001.84,-00010.86, 00007.95,-00004.95, 00012.00, 00032.25
1970-1-1 0:0:42.941,-00192.38,-00115.23, 00915.53,-00020.88,-00007.67,-00011.64, 00007.50,-00006.60, 00011.55, 00032.39
1970-1-1 0:0:42.986,-00188.96,-00148.93, 00875.98,-00005.03,-00008.00,-00013.78, 00007.05,-00006.60, 00010.80, 00032.25
1970-1-1 0:0:43.031,-00146.97,-00152.83, 00797.85, 00010.80,-00009.11,-00008.77, 00007.35,-00006.45, 00010.95, 00032.25
1970-1-1 0:0:43.076,-00154.79,-00168.95, 00728.03,-00001.51,-00012.66,-00016.11, 00005.40,-00008.85, 00010.95, 00032.25
1970-1-1 0:0:43.121,-00125.98,-00188.48, 00771.97, 00004.26,-00031.21,-00026.79, 00003.60,-00007.05, 00011.25, 00032.29
1970-1-1 0:0:43.166,-00214.36,-00194.34, 01003.42, 00006.12,-00076.63,-00040.73, 00002.25,-00007.65, 00011.70, 00032.39
1970-1-1 0:0:43.211,-00085.45, 00028.81, 00913.57, 00031.68,-00138.79,-00056.57,-00002.70,-00006.45, 00012.90, 00032.10
1970-1-1 0:0:43.256,-00603.52,-02000.00, 01999.94,-00250.14, 00094.34, 00080.37,-00006.75,-00000.15, 00015.75, 00032.39
1970-1-1 0:0:43.301,-00098.14,-00166.99, 01002.93, 00196.24, 00017.65, 00021.32,-00004.80,-00005.40, 00014.25, 00032.25
1970-1-1 0:0:43.346, 00055.66,-00349.12, 01004.88, 00012.06, 00012.99, 00001.96,-00006.75,-00003.75, 00015.45, 00032.44
1970-1-1 0:0:43.391,-00021.97,-00202.64, 01232.91,-00011.98,-00012.53,-00000.00,-00006.30,-00004.95, 00015.45, 00032.10
1970-1-1 0:0:43.436,-00005.37, 00010.74, 01063.48,-00000.02,-00032.40,-00008.80,-00006.90,-00002.70, 00015.90, 00032.44
1970-1-1 0:0:43.481, 00041.02, 00100.59, 00977.05,-00047.12,-00034.02, 00002.40,-00006.75,-00002.10, 00016.20, 00032.39
1970-1-1 0:0:43.526, 00060.55,-00044.92, 00840.33,-00001.69, 00014.44,-00001.58,-00007.50,-00003.30, 00016.20, 00031.91
1970-1-1 0:0:43.571,-00006.84,-00051.27, 00969.24,-00012.30, 00011.65, 00000.24,-00006.30,-00002.10, 00016.95, 00032.20
1970-1-1 0:0:43.616, 00019.04,-00061.52, 00951.17,-00001.21,-00000.66,-00000.81,-00006.75,-00002.10, 00017.70, 00032.25
1970-1-1 0:0:43.661,-00002.93,-00074.22, 01000.98, 00000.32,-00002.19, 00001.15,-00006.90,-00004.80, 00015.15, 00032.39
1970-1-1 0:0:43.706,-00001.95,-00097.17, 01000.49, 00000.48,-00001.08,-00001.17,-00006.90,-00003.15, 00014.85, 00031.91
1970-1-1 0:0:43.751, 00003.91,-00100.59, 01017.58,-00006.14, 00001.17,-00001.24,-00005.70,-00003.90, 00015.60, 00032.39
1970-1-1 0:0:43.796, 00009.77,-00100.59, 01006.35,-00000.34, 00000.77, 00001.86,-00007.35,-00003.60, 00013.65, 00032.20
1970-1-1 0:0:43.841, 00006.35,-00072.75, 01001.95,-00000.66,-00001.65, 00001.58,-00007.05,-00004.20, 00016.50, 00031.91
1970-1-1 0:0:43.908, 00002.44,-00097.17, 00998.54,-00001.58,-00000.15,-00000.09,-00006.90,-00003.15, 00014.85, 00032.44
1970-1-1 0:0:43.975, 00007.32,-00089.36, 01001.46,-00003.14,-00001.03, 00000.55,-00008.10,-00002.40, 00015.60, 00032.10
1970-1-1 0:0:44.042, 00002.93,-00105.47, 01014.65, 00000.57,-00001.63, 00000.73,-00006.60,-00004.35, 00015.15, 00032.25
1970-1-1 0:0:44.109, 00000.98,-00088.38, 01011.72,-00000.96,-00001.69, 00003.08,-00005.55,-00003.00, 00014.70, 00032.10
1970-1-1 0:0:44.176,-00000.49,-00102.05, 01004.88,-00000.56,-00000.50, 00000.36,-00006.30,-00003.00, 00014.25, 00032.25
1970-1-1 0:0:44.243, 00004.88,-00085.45, 01005.37,-00002.11, 00000.70,-00002.06,-00006.15,-00003.60, 00015.90, 00032.25
1970-1-1 0:0:44.310, 00000.00,-00088.38, 00992.19,-00001.19,-00002.03,-00000.07,-00006.90,-00002.40, 00015.90, 00032.25
1970-1-1 0:0:44.355,-00002.44,-00084.96, 00996.58,-00002.41,-00000.85, 00000.24,-00006.90,-00001.95, 00015.60, 00032.53
1970-1-1 0:0:44.400, 00005.86,-00085.45, 01001.95,-00002.03,-00001.51, 00000.33,-00005.70,-00002.70, 00016.80, 00032.44
1970-1-1 0:0:44.445, 00001.46,-00088.38, 00997.56,-00000.52,-00003.37, 00002.44,-00007.95,-00003.75, 00015.00, 00032.25
1970-1-1 0:0:44.490,-00007.32,-00088.38, 01007.32, 00000.17,-00000.34,-00000.77,-00007.35,-00003.90, 00015.90, 00032.10
1970-1-1 0:0:44.535,-00004.88,-00085.94, 00994.14,-00000.16,-00002.61,-00001.29,-00007.35,-00003.60, 00014.85, 00032.10
1970-1-1 0:0:44.580, 00003.91,-00083.50, 00999.51,-00003.17, 00000.89,-00001.26,-00007.05,-00002.55, 00015.75, 00032.29
1970-1-1 0:0:44.625, 00002.44,-00088.87, 00997.07,-00001.79,-00001.77, 00000.99,-00005.70,-00003.60, 00015.60, 00032.25
1970-1-1 0:0:44.670,-00014.65,-00084.47, 01004.88, 00001.37,-00000.73, 00001.05,-00006.60,-00003.15, 00015.90, 00032.29
1970-1-1 0:0:44.715, 00000.49,-00092.77, 01003.91,-00003.98, 00000.79,-00002.83,-00006.30,-00003.75, 00015.00, 00032.25
1970-1-1 0:0:44.760,-00001.95,-00090.33, 01004.88,-00000.14,-00001.95, 00001.87,-00006.30,-00003.30, 00015.75, 00032.29
1970-1-1 0:0:44.805, 00000.98,-00090.82, 01000.49,-00001.04,-00000.87, 00002.61,-00007.05,-00003.30, 00015.45, 00032.29
1970-1-1 0:0:44.850, 00016.11,-00081.05, 00994.63,-00001.11, 00000.85, 00001.66,-00006.75,-00003.75, 00014.70, 00032.10
1970-1-1 0:0:44.895, 00001.46,-00089.84, 01004.39,-00001.21,-00001.22,-00000.07,-00006.90,-00001.95, 00015.90, 00032.25
1970-1-1 0:0:44.940, 00004.39,-00088.38, 01001.46, 00000.95,-00001.86, 00002.27,-00006.60,-00002.40, 00015.90, 00032.39
1970-1-1 0:0:44.985,-00012.21,-00097.66, 01002.93,-00000.21,-00003.71,-00003.25,-00006.60,-00003.15, 00015.60, 00031.91
1970-1-1 0:0:45.030, 00005.37,-00084.47, 01013.18,-00002.43, 00002.38,-00000.99,-00007.50,-00002.10, 00015.00, 00032.25
1970-1-1 0:0:45.075, 00005.86,-00092.77, 00997.07, 00000.44,-00004.01, 00003.09,-00007.35,-00003.15, 00014.85, 00032.25
1970-1-1 0:0:45.120,-00008.79,-00079.59, 01003.42, 00001.31,-00000.37, 00005.02,-00007.50,-00003.75, 00016.20, 00032.39
1970-1-1 0:0:45.165,-00019.53,-00166.02, 01002.93,-00003.68,-00001.54, 00006.15,-00006.30,-00003.00, 00015.45, 00032.20
1970-1-1 0:0:45.210, 00023.93,-00062.50, 00990.72,-00003.55,-00000.24, 00000.51,-00007.35,-00003.60, 00015.60, 00032.29
1970-1-1 0:0:45.255, 00007.81,-00071.78, 01028.32,-00001.40,-00001.25, 00000.79,-00006.30,-00003.00, 00015.45, 00032.39
1970-1-1 0:0:45.300,-00003.91,-00087.40, 00967.77, 00004.37,-00001.18, 00000.91,-00007.95,-00003.30, 00014.70, 00032.39
1970-1-1 0:0:45.367,-00027.83,-00223.14, 01014.16,-00004.53, 00001.11,-00004.55,-00006.60,-00005.10, 00016.35, 00032.25
1970-1-1 0:0:45.434, 00080.57, 00065.92, 00996.09,-00012.05,-00009.34, 00010.93,-00006.90,-00003.15, 00015.15, 00032.10
1970-1-1 0:0:45.501,-00052.73,-00025.39, 01162.60,-00006.65, 00000.24, 00000.89,-00006.90,-00003.15, 00014.40, 00032.44
1970-1-1 0:0:45.568,-00005.37,-00010.25, 01067.38, 00013.03,-00010.18, 00019.15,-00007.05,-00002.10, 00017.25, 00032.39
1970-1-1 0:0:45.635,-00107.91, 00154.30, 01105.96,-00004.60, 00005.15, 00003.31,-00007.05,-00002.55, 00015.75, 00032.29
1970-1-1 0:0:45.702, 00031.25,-00066.41, 01085.94,-00020.16, 00003.79,-00006.67,-00005.40,-00002.40, 00015.90, 00032.10
1970-1-1 0:0:45.769,-00076.17,-00246.09, 01047.85, 00025.08, 00059.02, 00006.69,-00006.15,-00001.95, 00015.90, 00032.39
1970-1-1 0:0:45.814,-00030.27,-00031.25, 01069.82, 00038.27, 00096.88,-00002.24,-00000.75, 00000.00, 00017.55, 00032.29
1970-1-1 0:0:45.859,-00097.66,-00011.72, 00994.63, 00064.71, 00104.79, 00009.43, 00000.15, 00002.10, 00016.20, 00032.10
1970-1-1 0:0:45.904,-00269.04, 00081.05, 01052.25, 00070.06, 00091.97,-00003.10, 00005.70, 00003.15, 00017.55, 00032.39
1970-1-1 0:0:45.949,-00315.43, 00137.70, 01023.93, 00060.08, 00101.55, 00000.66, 00009.00, 00006.60, 00016.20, 00032.39
1970-1-1 0:0:45.994,-00389.16, 00228.03, 00968.75, 00060.79, 00101.68, 00010.83, 00013.95, 00010.05, 00015.90, 00031.91
1970-1-1 0:0:46.039,-00402.83, 00200.68, 00940.92, 00088.11, 00081.92, 00020.18, 00017.70, 00013.05, 00013.80, 00032.58
1970-1-1 0:0:46.084,-00441.41, 00254.39, 00825.20, 00090.60, 00058.13, 00023.56, 00020.55, 00016.80, 00014.85, 00032.25
1970-1-1 0:0:46.129,-00498.54, 00298.83, 00748.54, 00095.17, 00021.64, 00030.95, 00021.90, 00021.15, 00013.80, 00032.39
1970-1-1 0:0:46.174,-00474.61, 00370.61, 00722.17, 00107.02,-00002.56, 00047.77, 00023.70, 00024.90, 00011.40, 00032.20
1970-1-1 0:0:46.219,-00482.42, 00527.83, 00797.85, 00084.15,-00023.14, 00060.13, 00025.05, 00030.75, 00011.55, 00032.29
1970-1-1 0:0:46.264,-00444.34, 00497.07, 00708.01, 00062.44,-00076.44, 00075.68, 00022.65, 00034.05, 00012.00, 00032.25
1970-1-1 0:0:46.309,-00337.40, 00510.25, 00663.57, 00051.55,-00071.15, 00072.15, 00018.60, 00037.35, 00010.95, 00031.91
1970-1-1 0:0:46.354,-00263.67, 00610.84, 00688.96, 00047.75,-00092.03, 00074.77, 00016.05, 00039.30, 00011.25, 00032.01
1970-1-1 0:0:46.399,-00208.50, 00671.88, 00608.89, 00049.26,-00111.66, 00076.11, 00009.00, 00042.45, 00013.80, 00032.39
1970-1-1 0:0:46.444,-00127.93, 00670.90, 00622.56, 00015.15,-00076.02, 00063.03, 00003.00, 00044.70, 00012.90, 00032.25
1970-1-1 0:0:46.489,-00072.27, 00667.48, 00641.11,-00018.38,-00078.52, 00063.49, 00001.05, 00044.70, 00011.70, 00032.39
1970-1-1 0:0:46.534, 00048.83, 00666.50, 00672.36,-00062.98,-00081.85, 00057.76,-00001.05, 00045.15, 00012.60, 00032.44
1970-1-1 0:0:46.579, 00139.16, 00660.64, 00822.75,-00115.34,-00080.07, 00040.31,-00008.55, 00037.35, 00014.85, 00032.58
1970-1-1 0:0:46.624, 00168.46, 00504.88, 00797.36,-00141.73,-00063.51, 00026.82,-00010.05, 00033.45, 00015.60, 00032.10
1970-1-1 0:0:46.669, 00215.82, 00428.71, 00738.77,-00153.82,-00027.93, 00030.63,-00011.55, 00027.75, 00015.60, 00032.10
1970-1-1 0:0:46.714, 00245.12, 00299.32, 00879.88,-00183.47, 00009.86, 00007.56,-00013.35, 00023.55, 00016.20, 00032.25
1970-1-1 0:0:46.759, 00235.84, 00271.97, 00944.82,-00178.02, 00024.07, 00004.47,-00012.90, 00012.90, 00016.35, 00032.58
1970-1-1 0:0:46.804, 00176.27, 00101.56, 00904.79,-00170.50, 00040.13, 00006.54,-00011.85, 00007.35, 00016.95, 00032.39
1970-1-1 0:0:46.871, 00158.69,-00070.80, 01000.98,-00170.52, 00087.35,-00014.36,-00009.45,-00003.30, 00011.55, 00032.58
1970-1-1 0:0:46.938, 00014.65,-00263.18, 00993.65,-00125.92, 00119.73,-00017.29,-00004.05,-00011.40, 00007.35, 00032.44
1970-1-1 0:0:47.05,-00077.64,-00472.17, 00910.64,-00071.60, 00142.22,-00038.73, 00000.75,-00017.25, 00003.75, 00032.25
1970-1-1 0:0:47.072,-00107.91,-00410.16, 00794.92,-00009.34, 00156.89,-00032.39, 00004.05,-00019.05, 00001.65, 00032.25
1970-1-1 0:0:47.139,-00332.52,-00424.80, 00792.97, 00043.15, 00112.91,-00025.57, 00009.45,-00019.50,-00000.45, 00032.58
1970-1-1 0:0:47.206,-00390.62,-00410.64, 00869.63, 00075.39, 00087.92, 00016.72, 00011.85,-00017.10, 00001.65, 00032.44
1970-1-1 0:0:47.273,-00539.06,-00342.29, 00861.82, 00085.37, 00026.63, 00014.56, 00015.30,-00012.15, 00004.35, 00032.25
1970-1-1 0:0:47.318,-00533.20,-00237.79, 00858.89, 00086.37, 00001.11, 00036.24, 00018.00,-00010.65, 00005.85, 00032.25
1970-1-1 0:0:47.363,-00521.48,-00136.72, 00876.95, 00083.79,-00010.19, 00043.40, 00019.50,-00007.05, 00007.35, 00032.44
1970-1-1 0:0:47.408,-00527.34,-00088.87, 00878.42, 00065.66,-00031.87, 00037.82, 00019.35,-00004.80, 00008.70, 00032.39
1970-1-1 0:0:47.453,-00459.47,-00050.29, 00870.61, 00034.44,-00022.12, 00033.50, 00016.65,-00000.75, 00010.65, 00032.44
1970-1-1 0:0:47.498,-00455.57,-00006.35, 00894.53, 00016.02,-00054.83, 00026.49, 00017.40, 00001.50, 00010.65, 00032.29
1970-1-1 0:0:47.543,-00396.00,-00022.46, 00870.61,-00006.85,-00071.89, 00018.53, 00015.75, 00001.80, 00012.00, 00032.53
1970-1-1 0:0:47.588,-00296.88,-00040.04, 00833.50,-00025.18,-00065.24, 00010.09, 00013.20, 00001.20, 00015.60, 00032.44
1970-1-1 0:0:47.633,-00274.90,-00056.15, 00885.74,-00015.83,-00076.19, 00013.63, 00012.00, 00000.00, 00014.85, 00032.10
1970-1-1 0:0:47.678,-00262.70,-00033.20, 00940.43,-00024.26,-00064.67, 00003.64, 00008.10,-00002.40, 00013.65, 00032.29
1970-1-1 0:0:47.723,-00177.25,-00093.75, 00957.52,-00014.64,-00037.76, 00000.37, 00006.90,-00001.20, 00012.90, 00032.39
1970-1-1 0:0:47.768,-00219.73,-00064.45, 01028.81,-00004.60,-00020.16,-00002.10, 00005.40,-00000.75, 00014.40, 00032.39
1970-1-1 0:0:47.813,-00199.71,-00091.31, 01015.14,-00000.50,-00006.19,-00004.37, 00003.30,-00001.35, 00015.00, 00032.44
1970-1-1 0:0:47.858,-00153.81,-00137.70, 00962.89,-00001.54, 00003.44, 00000.11, 00002.85,-00001.80, 00015.45, 00032.39
1970-1-1 0:0:47.903,-00152.34,-00222.66, 00876.95,-00016.99,-00014.44,-00007.27, 00003.75,-00000.30, 00015.15, 00032.44
1970-1-1 0:0:47.948,-00074.22, 00091.31, 00799.32, 00024.87,-00070.37,-00037.67, 00001.80,-00001.20, 00014.40, 00032.20
1970-1-1 0:0:47.993,-00661.62, 00218.26, 00686.04, 00066.04,-00048.97,-00008.67,-00002.10,-00000.60, 00015.00, 00032.29
1970-1-1 0:0:48.038,-00021.97, 00000.98, 00378.42,-00065.21,-00095.11,-00035.76,-00004.65, 00002.40, 00017.10, 00032.39
1970-1-1 0:0:48.083,-00225.10, 00353.52, 00403.81, 00070.49,-00053.35, 00003.24,-00008.55, 00005.55, 00017.10, 00031.91
1970-1-1 0:0:48.128,-00049.32,-00146.00, 00009.77,-00236.88, 00166.91,-00009.34,-00010.65, 00003.30, 00016.20, 00032.39
1970-1-1 0:0:48.173, 00034.18, 00041.02, 00821.78,-00033.43, 00002.82, 00001.15,-00009.60,-00000.75, 00017.85, 00032.39
1970-1-1 0:0:48.218, 00005.86, 00021.97, 01074.71, 00018.83,-00002.56,-00000.64,-00009.00,-00000.90, 00015.45, 00032.29
1970-1-1 0:0:48.263, 00005.37,-00079.59, 01010.74,-00005.77,-00000.18,-00001.65,-00010.05,-00001.50, 00016.35, 00032.20
1970-1-1 0:0:48.330, 00004.88,-00064.94, 01000.00,-00001.62, 00003.16,-00000.50,-00008.70,-00000.60, 00015.75, 00032.25
1970-1-1 0:0:48.397, 00006.84,-00069.82, 01011.23, 00001.18, 00000.59, 00002.42,-00008.25,-00000.75, 00015.15, 00032.20
1970-1-1 0:0:48.464, 00009.28,-00055.18, 01010.25, 00000.08,-00002.04, 00001.47,-00009.45,-00000.60, 00015.45, 00032.58
1970-1-1 0:0:48.531,-00009.77,-00051.76, 01002.93,-00002.18,-00001.27,-00002.37,-00009.00,-00000.90, 00016.20, 00032.25
1970-1-1 0:0:48.598, 00003.42,-00067.87, 01008.79,-00000.11,-00001.44, 00001.06,-00009.45, 00000.60, 00016.95, 00032.44
1970-1-1 0:0:48.665, 00006.35,-00057.62, 01007.32, 00001.35,-00003.67, 00000.56,-00009.30,-00000.75, 00015.15, 00032.25
1970-1-1 0:0:48.732, 00018.07,-00051.27, 01000.98,-00002.94,-00000.32,-00000.14,-00008.85,-00000.30, 00014.40, 00032.25
1970-1-1 0:0:48.777,-00005.37,-00061.04, 01005.37, 00000.41, 00000.18, 00000.73,-00008.10, 00000.00, 00016.80, 00032.01
1970-1-1 0:0:48.822, 00016.11,-00055.18, 01014.16, 00000.00,-00005.27,-00000.32,-00009.30,-00001.20, 00014.85, 00032.29
1970-1-1 0:0:48.867, 00003.42,-00048.83, 01001.46,-00003.85, 00000.57,-00000.81,-00009.60,-00000.75, 00014.85, 00032.39
1970-1-1 0:0:48.912, 00009.28,-00052.73, 00997.07, 00000.69,-00002.31, 00002.40,-00009.30,-00001.20, 00015.60, 00032.39
1970-1-1 0:0:48.957, 00004.88,-00054.20, 01003.91, 00000.18,-00001.08, 00000.27,-00009.30,-00000.30, 00015.15, 00032.25
1970-1-1 0:0:49.02, 00002.93,-00047.85, 01006.84,-00000.13, 00000.44, 00002.47,-00009.45,-00000.60, 00015.00, 00032.58
1970-1-1 0:0:49.047, 00014.16,-00053.71, 01004.39,-00000.35,-00000.33, 00001.70,-00009.30,-00001.50, 00015.15, 00032.63
1970-1-1 0:0:49.092,-00005.86,-00055.66, 01017.09, 00000.78, 00000.03,-00000.09,-00008.55,-00000.30, 00014.85, 00032.10
1970-1-1 0:0:49.137, 00006.35,-00041.99, 01002.93, 00000.77,-00002.69, 00000.79,-00008.10,-00000.75, 00015.60, 00032.39
1970-1-1 0:0:49.182,-00000.49,-00053.22, 01004.88,-00000.95, 00003.45,-00000.36,-00009.90,-00000.15, 00015.45, 00032.39
1970-1-1 0:0:49.227, 00013.67,-00041.50, 01010.74,-00002.70, 00001.44,-00000.09,-00009.00,-00000.90, 00015.45, 00032.25
1970-1-1 0:0:49.272, 00008.79,-00054.20, 01000.49,-00000.30,-00000.86, 00003.55,-00009.60, 00000.75, 00016.35, 00032.39
1970-1-1 0:0:49.317, 00007.81,-00061.52, 00996.58,-00002.38, 00002.13,-00000.30,-00009.30,-00001.50, 00014.85, 00032.39
1970-1-1 0:0:49.362, 00009.77,-00050.29, 01005.86,-00000.37, 00001.77, 00000.24,-00008.85,-00001.20, 00015.15, 00032.25
1970-1-1 0:0:49.407, 00006.35,-00058.11, 01002.93,-00000.71,-00001.34, 00001.79,-00007.95,-00000.15, 00016.50, 00032.10
1970-1-1 0:0:49.452, 00004.88,-00058.11, 01001.46,-00000.95,-00001.05, 00000.89,-00009.45, 00000.60, 00015.45, 00032.44
1970-1-1 0:0:49.497, 00008.30,-00054.20, 01001.46,-00001.34, 00001.18, 00000.64,-00008.25,-00001.35, 00015.75, 00032.25
1970-1-1 0:0:49.542, 00000.00,-00051.76, 01005.86,-00001.38, 00000.64, 00000.25,-00009.00,-00001.80, 00015.75, 00032.25
1970-1-1 0:0:49.587, 00013.18,-00049.80, 01016.60, 00001.22,-00000.60, 00000.54,-00009.00,-00000.60, 00014.25, 00032.39
1970-1-1 0:0:49.632, 00014.16,-00044.92, 01001.95,-00002.43,-00002.08,-00000.56,-00009.60,-00000.75, 00015.60, 00032.58
1970-1-1 0:0:49.677,-00000.98,-00052.73, 01010.25,-00001.34, 00001.42,-00000.37,-00010.20,-00001.80, 00015.45, 00032.29
1970-1-1 0:0:49.722, 00000.98,-00048.83, 01006.35, 00002.44,-00002.73, 00003.17,-00009.45,-00000.15, 00016.50, 00032.25
1970-1-1 0:0:49.767, 00005.37,-00060.55, 00994.63, 00000.02,-00002.82, 00000.79,-00010.20,-00000.60, 00016.50, 00032.29
1970-1-1 0:0:49.834, 00017.09,-00057.62, 01009.28, 00000.57,-00003.93, 00001.14,-00009.30,-00002.40, 00015.60, 00032.25
1970-1-1 0:0:49.901, 00006.84,-00062.50, 01003.91,-00001.45,-00000.69, 00000.09,-00009.30,-00000.75, 00016.35, 00032.20
1970-1-1 0:0:49.968,-00003.91,-00046.39, 01012.70, 00002.10,-00000.35,-00000.23,-00009.45,-00000.90, 00015.75, 00032.44
1970-1-1 0:0:50.035, 00009.77,-00043.46, 01007.81, 00000.09,-00000.78, 00002.34,-00009.60,-00001.20, 00014.40, 00032.58
1970-1-1 0:0:50.102,-00011.23,-00052.25, 01015.62,-00003.02, 00000.69, 00000.31,-00007.50,-00001.35, 00016.50, 00032.58
1970-1-1 0:0:50.169, 00008.79,-00067.87, 01008.79,-00002.10, 00001.25, 00002.24,-00009.90,-00000.15, 00015.45, 00032.39
1970-1-1 0:0:50.236, 00006.35,-00059.57, 01006.35, 00001.16,-00000.21, 00000.41,-00007.65,-00001.20, 00016.35, 00032.25
1970-1-1 0:0:50.281,-00015.62,-00050.78, 00996.09,-00001.05, 00000.13, 00000.46,-00008.85,-00001.95, 00016.80, 00032.39
1970-1-1 0:0:50.326, 00015.14,-00058.11, 01003.91,-00000.83, 00001.65,-00000.37,-00010.20,-00002.55, 00016.50, 00032.39
1970-1-1 0:0:50.371, 00011.23,-00053.71, 00977.05, 00000.47,-00000.14, 00001.27,-00008.55,-00000.30, 00017.10, 00032.25
1970-1-1 0:0:50.416, 00003.42,-00060.55, 01003.42,-00000.73, 00002.47, 00001.58,-00010.05,-00001.50, 00015.90, 00032.20
1970-1-1 0:0:50.461, 00003.42,-00057.13, 01003.91,-00003.51, 00001.77, 00000.84,-00009.00,-00000.60, 00015.75, 00032.44
1970-1-1 0:0:50.506, 00000.98,-00058.59, 01010.25,-00000.56, 00001.66,-00000.44,-00009.90,-00000.15, 00016.20, 00032.29
1970-1-1 0:0:50.551, 00006.84,-00049.32, 00991.21,-00000.91,-00001.85, 00002.82,-00008.70,-00001.80, 00015.00, 00032.20
1970-1-1 0:0:50.596,-00005.86,-00045.90, 01006.35,-00002.85,-00000.65,-00001.05,-00008.25,-00001.35, 00016.50, 00032.10
1970-1-1 0:0:50.641, 00010.25,-00046.88, 00998.54,-00003.45, 00000.47,-00001.63,-00010.05, 00000.00, 00015.15, 00032.39
1970-1-1 0:0:50.686, 00011.72,-00060.06, 01010.74,-00001.42,-00005.36, 00001.37,-00008.85,-00001.20, 00016.35, 00032.29
1970-1-1 0:0:50.731, 00004.88,-00050.78, 01004.88, 00001.46, 00000.86, 00001.72,-00009.90,-00001.35, 00015.45, 00032.25
1970-1-1 0:0:50.776, 00008.30,-00059.57, 00987.79,-00003.07,-00000.62, 00001.04,-00009.90,-00000.90, 00014.25, 00032.53
1970-1-1 0:0:50.821, 00008.79,-00047.36, 01009.77,-00002.89, 00003.11,-00003.55,-00007.95,-00001.80, 00015.75, 00032.29
1970-1-1 0:0:50.866,-00005.86,-00061.04, 00999.02, 00000.23, 00000.63, 00002.57,-00009.30,-00001.20, 00015.90, 00032.10
1970-1-1 0:0:50.911,-00002.93,-00061.52, 00991.70,-00002.98,-00000.35,-00000.74,-00009.45,-00000.90, 00015.00, 00032.25
1970-1-1 0:0:50.956, 00008.79,-00058.11, 01002.93,-00002.50, 00000.00,-00000.31,-00008.25,-00001.35, 00017.25, 00032.39
1970-1-1 0:0:51.01,-00012.21,-00029.30, 00973.14,-00001.18,-00000.50, 00000.98,-00008.85,-00001.50, 00015.60, 00032.29
1970-1-1 0:0:51.046, 00009.77,-00062.50, 00962.89,-00000.99, 00000.76, 00002.78,-00009.60,-00002.40, 00014.85, 00032.10
1970-1-1 0:0:51.091, 00004.88,-00037.60, 01033.69,-00001.82,-00000.23, 00000.08,-00007.95,-00001.80, 00015.45, 00032.44
1970-1-1 0:0:51.136, 00008.30,-00057.13, 01020.51,-00004.20, 00001.62,-00004.05,-00010.20, 00000.90, 00016.20, 00032.25
1970-1-1 0:0:51.181, 00015.14,-00059.57, 01005.37,-00000.36,-00003.06, 00001.95,-00009.30,-00000.75, 00015.15, 00032.06
1970-1-1 0:0:51.226, 00003.91,-00138.18, 01009.77,-00001.74,-00002.33,-00006.60,-00009.60,-00002.40, 00015.90, 00032.39
1970-1-1 0:0:51.293,-00001.46,-00096.19, 01004.39, 00001.10,-00002.02,-00006.49,-00008.10,-00001.20, 00017.10, 00032.29
1970-1-1 0:0:51.360, 00033.69,-00041.99, 01011.23,-00000.15, 00002.27,-00000.67,-00009.30,-00000.75, 00015.90, 00032.39
1970-1-1 0:0:51.427,-00005.37,-00059.08, 01000.00,-00001.30, 00001.89, 00002.76,-00009.00,-00001.80, 00015.75, 00032.39
1970-1-1 0:0:51.494, 00003.91,-00064.94, 00997.07, 00001.14, 00000.42, 00001.71,-00009.00,-00001.35, 00014.70, 00032.01
1970-1-1 0:0:51.561,-00004.88, 00024.41, 00994.63, 00002.23,-00000.42, 00007.73,-00009.60, 00000.00, 00014.85, 00032.29
1970-1-1 0:0:51.628, 00011.23,-00051.27, 00998.05,-00001.82, 00001.69,-00000.05,-00009.45, 00000.15, 00015.45, 00032.53
1970-1-1 0:0:51.695, 00000.98, 00138.18, 00992.68, 00001.02,-00000.11,-00000.40,-00008.10,-00001.20, 00016.80, 00032.44
1970-1-1 0:0:51.740, 00015.14,-00060.06, 00996.09,-00000.28, 00000.74,-00002.56,-00008.85,-00000.75, 00015.60, 00032.39
1970-1-1 0:0:51.785, 00003.91,-00060.55, 01010.25,-00001.12,-00001.16, 00001.23,-00009.30,-00001.20, 00014.85, 00032.44
1970-1-1 0:0:51.830, 00009.77,-00060.06, 01000.49, 00000.02, 00000.69, 00001.98,-00008.85,-00000.30, 00015.15, 00032.63
1970-1-1 0:0:51.875, 00013.18,-00061.52, 01006.84,-00002.34,-00000.12, 00001.05,-00010.05, 00000.30, 00015.90, 00032.10
1970-1-1 0:0:51.920, 00000.49, 00027.34, 01010.25, 00000.03,-00001.27, 00000.60,-00009.60,-00000.30, 00015.15, 00032.39
1970-1-1 0:0:51.965, 00010.25,-00069.82, 01005.86, 00001.28, 00000.05, 00002.71,-00008.85, 00000.30, 00015.15, 00032.29
1970-1-1 0:0:52.010, 00010.74,-00032.71, 00999.51, 00003.34,-00002.83,-00001.72,-00009.60,-00000.30, 00015.15, 00032.20
1970-1-1 0:0:52.055, 00009.77,-00053.22, 01001.46,-00002.39,-00002.80, 00001.05,-00010.65,-00000.60, 00015.75, 00032.39
1970-1-1 0:0:52.100, 00016.11,-00044.43, 01008.79,-00003.27, 00001.46, 00001.85,-00009.60,-00001.50, 00014.40, 00032.39
